"USUBJID","TRT01PN","TRT01A","RANDDT","FIRSTDOSEDT","TTT_DAYS","TTT_MONTHS","RECEIVED_TX","CNSR_TTT","ITTFL","SAFFL","SEX","AGEGR1","ECOG"
"SUB0001",1,"Experimental",2023-06-30,2023-07-02,2,0.0657,1,0,"N","Y","M","<65",0
"SUB0002",1,"Experimental",2023-08-27,2023-08-31,4,0.1314,1,0,"Y","Y","M",">=65",0
"SUB0003",0,"Control",2023-10-11,2023-10-16,5,0.1643,1,0,"Y","Y","M",">=65",0
"SUB0004",1,"Experimental",2023-09-09,2023-09-09,0,0,1,0,"Y","Y","M",">=65",1
"SUB0005",0,"Control",2023-04-03,2023-04-05,2,0.0657,1,0,"Y","Y","M","<65",0
"SUB0006",0,"Control",2023-11-09,2023-11-13,4,0.1314,1,0,"Y","Y","F",">=65",1
"SUB0007",0,"Control",2023-03-25,2023-03-27,2,0.0657,1,0,"Y","Y","M",">=65",1
"SUB0008",0,"Control",2023-08-13,2023-08-13,0,0,1,0,"Y","Y","M",">=65",1
"SUB0009",1,"Experimental",2023-03-02,2023-03-06,4,0.1314,1,0,"Y","Y","F",">=65",0
"SUB0010",1,"Experimental",2023-04-12,2023-04-15,3,0.0986,1,0,"Y","Y","F","<65",0
"SUB0011",1,"Experimental",2023-06-20,2023-06-28,8,0.2628,1,0,"Y","Y","M",">=65",1
"SUB0012",1,"Experimental",2023-05-30,2023-06-03,4,0.1314,1,0,"Y","Y","F",">=65",0
"SUB0013",1,"Experimental",2023-07-01,2023-07-06,5,0.1643,1,0,"Y","Y","M",">=65",0
"SUB0014",0,"Control",2023-11-06,2023-11-14,8,0.2628,1,0,"Y","Y","M",">=65",1
"SUB0015",0,"Control",2023-02-24,2023-02-26,2,0.0657,1,0,"Y","Y","M","<65",1
"SUB0016",1,"Experimental",2023-02-23,2023-02-25,2,0.0657,1,0,"Y","Y","M","<65",1
"SUB0017",0,"Control",2023-11-10,2023-11-10,0,0,1,0,"Y","Y","F","<65",0
"SUB0018",0,"Control",2023-06-22,2023-06-22,0,0,1,0,"Y","Y","F","<65",0
"SUB0019",0,"Control",2023-02-12,2023-02-17,5,0.1643,1,0,"Y","Y","M",">=65",0
"SUB0020",0,"Control",2023-07-26,2023-07-26,0,0,1,0,"N","Y","M",">=65",0
"SUB0021",1,"Experimental",2023-03-26,2023-03-27,1,0.0329,1,0,"Y","Y","F",">=65",1
"SUB0022",0,"Control",2023-06-02,2023-06-10,8,0.2628,1,0,"Y","Y","M","<65",1
"SUB0023",1,"Experimental",2023-12-24,2023-12-27,3,0.0986,1,0,"Y","Y","F","<65",1
"SUB0024",0,"Control",2023-08-28,2023-08-30,2,0.0657,1,0,"Y","Y","M",">=65",0
"SUB0025",0,"Control",2023-02-18,2023-02-26,8,0.2628,1,0,"Y","Y","M",">=65",0
"SUB0026",1,"Experimental",2023-05-19,2023-05-20,1,0.0329,1,0,"Y","Y","M","<65",0
"SUB0027",0,"Control",2023-06-05,2023-06-08,3,0.0986,1,0,"Y","Y","F",">=65",1
"SUB0028",1,"Experimental",2023-10-01,2023-10-04,3,0.0986,1,0,"Y","Y","M","<65",0
"SUB0029",0,"Control",2023-02-24,2023-02-28,4,0.1314,1,0,"Y","Y","M","<65",1
"SUB0030",1,"Experimental",2023-08-14,2023-08-18,4,0.1314,1,0,"Y","Y","F","<65",0
"SUB0031",1,"Experimental",2023-09-07,2023-09-10,3,0.0986,1,0,"Y","Y","F","<65",1
"SUB0032",1,"Experimental",2023-06-19,2023-06-22,3,0.0986,1,0,"Y","Y","F","<65",0
"SUB0033",0,"Control",2023-10-19,2023-10-21,2,0.0657,1,0,"Y","Y","M","<65",1
"SUB0034",0,"Control",2023-05-28,2023-05-30,2,0.0657,1,0,"Y","Y","M","<65",0
"SUB0035",1,"Experimental",2023-07-26,2023-07-30,4,0.1314,1,0,"Y","Y","F",">=65",0
"SUB0036",0,"Control",2023-07-08,2023-07-14,6,0.1971,1,0,"Y","Y","M","<65",0
"SUB0037",0,"Control",2023-11-23,2023-11-24,1,0.0329,1,0,"Y","Y","M","<65",0
"SUB0038",0,"Control",2023-04-23,2023-04-27,4,0.1314,1,0,"Y","Y","F",">=65",0
"SUB0039",0,"Control",2023-01-27,2023-02-02,6,0.1971,1,0,"Y","Y","M","<65",0
"SUB0040",1,"Experimental",2023-04-04,2023-04-08,4,0.1314,1,0,"Y","Y","M","<65",0
"SUB0041",1,"Experimental",2023-05-13,2023-05-15,2,0.0657,1,0,"Y","Y","M",">=65",0
"SUB0042",0,"Control",2023-03-27,2023-03-27,0,0,1,0,"Y","Y","F","<65",0
"SUB0043",0,"Control",2023-04-24,2023-04-27,3,0.0986,1,0,"Y","Y","M","<65",1
"SUB0044",0,"Control",2023-09-07,2023-09-13,6,0.1971,1,0,"Y","Y","F",">=65",1
"SUB0045",1,"Experimental",2023-06-18,2023-06-21,3,0.0986,1,0,"Y","Y","F",">=65",0
"SUB0046",1,"Experimental",2023-08-08,2023-08-08,0,0,1,0,"Y","Y","F",">=65",1
"SUB0047",0,"Control",2023-02-07,2023-02-10,3,0.0986,1,0,"N","Y","M","<65",1
"SUB0048",0,"Control",2023-12-28,2024-01-06,9,0.2957,1,0,"Y","Y","F","<65",1
"SUB0049",1,"Experimental",2023-12-12,2023-12-17,5,0.1643,1,0,"Y","Y","M",">=65",0
"SUB0050",0,"Control",2023-04-25,2023-05-02,7,0.23,1,0,"Y","Y","F",">=65",1
"SUB0051",0,"Control",2023-12-27,NA,127,4.1725,0,1,"Y","Y","F",">=65",1
"SUB0052",0,"Control",2023-09-24,2023-09-30,6,0.1971,1,0,"Y","Y","F","<65",1
"SUB0053",0,"Control",2023-08-08,2023-08-08,0,0,1,0,"Y","Y","M","<65",0
"SUB0054",0,"Control",2023-08-01,2023-08-11,10,0.3285,1,0,"Y","Y","F","<65",1
"SUB0055",1,"Experimental",2023-10-19,2023-10-20,1,0.0329,1,0,"Y","Y","M",">=65",0
"SUB0056",0,"Control",2023-08-02,2023-08-02,0,0,1,0,"Y","Y","F",">=65",1
"SUB0057",0,"Control",2023-11-11,2023-11-12,1,0.0329,1,0,"Y","Y","M",">=65",0
"SUB0058",1,"Experimental",2023-04-23,2023-04-28,5,0.1643,1,0,"Y","Y","F",">=65",1
"SUB0059",0,"Control",2023-01-30,2023-02-06,7,0.23,1,0,"Y","Y","M","<65",0
"SUB0060",1,"Experimental",2023-07-06,2023-07-11,5,0.1643,1,0,"Y","Y","F",">=65",0
"SUB0061",0,"Control",2023-12-30,NA,107,3.5154,0,1,"Y","Y","F",">=65",0
"SUB0062",0,"Control",2023-02-16,2023-02-16,0,0,1,0,"Y","Y","F",">=65",1
"SUB0063",1,"Experimental",2023-04-15,2023-04-16,1,0.0329,1,0,"Y","Y","M",">=65",1
"SUB0064",1,"Experimental",2023-07-21,NA,217,7.1294,0,1,"Y","Y","M",">=65",0
"SUB0065",1,"Experimental",2023-03-29,2023-04-02,4,0.1314,1,0,"Y","Y","F",">=65",0
"SUB0066",1,"Experimental",2023-09-25,2023-10-01,6,0.1971,1,0,"Y","Y","M","<65",0
"SUB0067",1,"Experimental",2023-06-30,2023-07-03,3,0.0986,1,0,"Y","Y","F","<65",0
"SUB0068",0,"Control",2023-11-03,2023-11-09,6,0.1971,1,0,"Y","Y","M","<65",0
"SUB0069",1,"Experimental",2023-01-10,2023-01-14,4,0.1314,1,0,"Y","Y","F",">=65",0
"SUB0070",0,"Control",2023-05-01,2023-05-07,6,0.1971,1,0,"Y","Y","M","<65",1
"SUB0071",0,"Control",2023-03-30,2023-04-03,4,0.1314,1,0,"Y","Y","M","<65",0
"SUB0072",1,"Experimental",2023-02-06,2023-02-09,3,0.0986,1,0,"Y","Y","M","<65",0
"SUB0073",0,"Control",2023-07-13,2023-07-17,4,0.1314,1,0,"Y","Y","M",">=65",1
"SUB0074",0,"Control",2023-06-12,2023-06-19,7,0.23,1,0,"Y","Y","M","<65",1
"SUB0075",1,"Experimental",2023-10-10,2023-10-14,4,0.1314,1,0,"Y","Y","F",">=65",1
"SUB0076",0,"Control",2023-02-15,2023-02-22,7,0.23,1,0,"Y","Y","F","<65",0
"SUB0077",0,"Control",2023-10-14,2023-10-23,9,0.2957,1,0,"Y","Y","M","<65",0
"SUB0078",0,"Control",2023-12-13,2023-12-22,9,0.2957,1,0,"N","Y","M","<65",1
"SUB0079",1,"Experimental",2023-12-22,2023-12-24,2,0.0657,1,0,"Y","Y","M","<65",0
"SUB0080",0,"Control",2023-11-05,2023-11-12,7,0.23,1,0,"Y","Y","F","<65",0
"SUB0081",1,"Experimental",2023-10-07,2023-10-10,3,0.0986,1,0,"Y","Y","M",">=65",1
"SUB0082",0,"Control",2023-09-01,2023-09-06,5,0.1643,1,0,"Y","Y","F","<65",1
"SUB0083",1,"Experimental",2023-07-22,2023-07-28,6,0.1971,1,0,"Y","Y","M","<65",1
"SUB0084",0,"Control",2023-08-13,2023-08-13,0,0,1,0,"Y","Y","M","<65",1
"SUB0085",0,"Control",2023-07-25,2023-07-31,6,0.1971,1,0,"Y","Y","M","<65",1
"SUB0086",0,"Control",2023-12-14,2023-12-14,0,0,1,0,"Y","Y","M",">=65",1
"SUB0087",0,"Control",2023-10-16,NA,132,4.3368,0,1,"Y","Y","M",">=65",1
"SUB0088",1,"Experimental",2023-04-03,2023-04-06,3,0.0986,1,0,"Y","Y","M",">=65",1
"SUB0089",1,"Experimental",2023-10-19,2023-10-25,6,0.1971,1,0,"Y","Y","M","<65",1
"SUB0090",1,"Experimental",2023-10-28,2023-10-31,3,0.0986,1,0,"Y","Y","M","<65",0
"SUB0091",1,"Experimental",2023-12-18,NA,97,3.1869,0,1,"Y","Y","F","<65",0
"SUB0092",1,"Experimental",2023-12-24,2023-12-26,2,0.0657,1,0,"Y","Y","M","<65",0
"SUB0093",1,"Experimental",2023-06-21,2023-06-21,0,0,1,0,"Y","Y","F",">=65",1
"SUB0094",1,"Experimental",2023-09-10,2023-09-11,1,0.0329,1,0,"Y","Y","F","<65",1
"SUB0095",1,"Experimental",2023-05-15,2023-05-17,2,0.0657,1,0,"Y","Y","F",">=65",0
"SUB0096",1,"Experimental",2023-12-30,2023-12-31,1,0.0329,1,0,"Y","Y","F","<65",0
"SUB0097",1,"Experimental",2023-09-18,2023-09-24,6,0.1971,1,0,"Y","N","F","<65",1
"SUB0098",0,"Control",2023-06-08,2023-06-12,4,0.1314,1,0,"Y","Y","F","<65",1
"SUB0099",1,"Experimental",2023-05-21,2023-05-21,0,0,1,0,"Y","Y","F",">=65",1
"SUB0100",0,"Control",2023-01-30,2023-02-02,3,0.0986,1,0,"Y","Y","M","<65",1
"SUB0101",0,"Control",2023-02-23,2023-02-27,4,0.1314,1,0,"Y","Y","F","<65",0
"SUB0102",1,"Experimental",2023-01-02,2023-01-05,3,0.0986,1,0,"Y","Y","F","<65",0
"SUB0103",0,"Control",2023-01-28,2023-02-03,6,0.1971,1,0,"Y","Y","F",">=65",0
"SUB0104",0,"Control",2023-04-21,2023-04-29,8,0.2628,1,0,"Y","Y","F","<65",1
"SUB0105",1,"Experimental",2023-07-31,2023-07-31,0,0,1,0,"Y","Y","F",">=65",0
"SUB0106",1,"Experimental",2023-08-23,2023-08-29,6,0.1971,1,0,"Y","Y","F",">=65",0
"SUB0107",0,"Control",2023-09-22,2023-10-05,13,0.4271,1,0,"Y","Y","F",">=65",1
"SUB0108",1,"Experimental",2023-11-06,2023-11-10,4,0.1314,1,0,"Y","Y","M","<65",1
"SUB0109",0,"Control",2023-05-18,2023-05-21,3,0.0986,1,0,"Y","N","F",">=65",0
"SUB0110",0,"Control",2023-07-18,2023-07-25,7,0.23,1,0,"Y","N","F",">=65",0
"SUB0111",1,"Experimental",2023-04-25,2023-04-29,4,0.1314,1,0,"Y","Y","M","<65",1
"SUB0112",0,"Control",2023-03-23,2023-04-01,9,0.2957,1,0,"N","Y","F",">=65",1
"SUB0113",0,"Control",2023-04-18,2023-04-24,6,0.1971,1,0,"Y","Y","F","<65",0
"SUB0114",0,"Control",2023-07-21,2023-07-22,1,0.0329,1,0,"N","Y","F",">=65",1
"SUB0115",1,"Experimental",2023-03-14,2023-03-16,2,0.0657,1,0,"N","Y","M",">=65",0
"SUB0116",0,"Control",2023-05-27,2023-05-28,1,0.0329,1,0,"Y","Y","F",">=65",0
"SUB0117",1,"Experimental",2023-12-01,2023-12-02,1,0.0329,1,0,"Y","Y","F",">=65",0
"SUB0118",1,"Experimental",2023-02-15,2023-02-21,6,0.1971,1,0,"Y","Y","F","<65",0
"SUB0119",1,"Experimental",2023-09-04,2023-09-07,3,0.0986,1,0,"Y","Y","F",">=65",1
"SUB0120",0,"Control",2023-05-11,2023-05-20,9,0.2957,1,0,"Y","N","M","<65",0
"SUB0121",1,"Experimental",2023-05-30,2023-05-31,1,0.0329,1,0,"Y","Y","M","<65",1
"SUB0122",0,"Control",2023-03-02,2023-03-08,6,0.1971,1,0,"Y","Y","M",">=65",0
"SUB0123",0,"Control",2023-01-20,2023-01-31,11,0.3614,1,0,"Y","Y","F","<65",0
"SUB0124",1,"Experimental",2023-06-19,2023-06-23,4,0.1314,1,0,"Y","Y","F",">=65",0
"SUB0125",1,"Experimental",2023-12-20,2023-12-24,4,0.1314,1,0,"Y","Y","M",">=65",0
"SUB0126",1,"Experimental",2023-01-17,2023-01-17,0,0,1,0,"Y","Y","F",">=65",1
"SUB0127",1,"Experimental",2023-03-23,2023-03-26,3,0.0986,1,0,"Y","Y","F","<65",0
"SUB0128",1,"Experimental",2023-07-30,2023-08-03,4,0.1314,1,0,"Y","Y","M",">=65",1
"SUB0129",1,"Experimental",2023-06-23,2023-06-23,0,0,1,0,"Y","Y","M","<65",0
"SUB0130",1,"Experimental",2023-09-30,2023-10-07,7,0.23,1,0,"Y","Y","M","<65",1
"SUB0131",0,"Control",2023-04-04,2023-04-06,2,0.0657,1,0,"Y","Y","F",">=65",0
"SUB0132",1,"Experimental",2023-11-26,2023-11-26,0,0,1,0,"Y","Y","M","<65",0
"SUB0133",0,"Control",2023-06-27,2023-06-27,0,0,1,0,"Y","Y","F",">=65",0
"SUB0134",1,"Experimental",2023-06-28,2023-06-30,2,0.0657,1,0,"Y","Y","M",">=65",0
"SUB0135",0,"Control",2023-03-15,2023-03-20,5,0.1643,1,0,"Y","Y","F","<65",0
"SUB0136",1,"Experimental",2023-10-31,2023-11-04,4,0.1314,1,0,"Y","Y","F",">=65",1
"SUB0137",1,"Experimental",2023-11-20,2023-11-20,0,0,1,0,"Y","Y","F","<65",1
"SUB0138",1,"Experimental",2023-12-12,2023-12-17,5,0.1643,1,0,"Y","Y","F","<65",1
"SUB0139",0,"Control",2023-11-13,NA,150,4.9281,0,1,"Y","Y","M","<65",0
"SUB0140",1,"Experimental",2023-08-19,2023-08-20,1,0.0329,1,0,"Y","Y","M","<65",0
"SUB0141",0,"Control",2024-01-01,2024-01-09,8,0.2628,1,0,"Y","Y","F","<65",1
"SUB0142",1,"Experimental",2023-04-26,2023-04-27,1,0.0329,1,0,"Y","Y","F","<65",0
"SUB0143",0,"Control",2023-08-02,2023-08-09,7,0.23,1,0,"Y","Y","F",">=65",1
"SUB0144",0,"Control",2023-04-18,2023-04-18,0,0,1,0,"Y","Y","F","<65",1
"SUB0145",0,"Control",2023-05-27,2023-05-27,0,0,1,0,"Y","Y","M","<65",0
"SUB0146",1,"Experimental",2023-11-22,2023-11-28,6,0.1971,1,0,"Y","Y","M","<65",1
"SUB0147",1,"Experimental",2023-08-24,2023-08-30,6,0.1971,1,0,"Y","Y","F",">=65",0
"SUB0148",0,"Control",2023-03-30,2023-04-06,7,0.23,1,0,"Y","Y","F","<65",0
"SUB0149",0,"Control",2023-01-30,2023-02-02,3,0.0986,1,0,"Y","Y","F","<65",1
"SUB0150",1,"Experimental",2023-04-16,2023-04-21,5,0.1643,1,0,"Y","Y","M","<65",0
"SUB0151",0,"Control",2023-04-13,2023-04-19,6,0.1971,1,0,"Y","Y","F",">=65",0
"SUB0152",0,"Control",2023-08-31,2023-09-04,4,0.1314,1,0,"Y","Y","F",">=65",0
"SUB0153",0,"Control",2023-12-11,2023-12-18,7,0.23,1,0,"Y","Y","F","<65",0
"SUB0154",1,"Experimental",2023-09-15,2023-09-20,5,0.1643,1,0,"Y","Y","M","<65",0
"SUB0155",1,"Experimental",2023-07-03,2023-07-07,4,0.1314,1,0,"Y","Y","M","<65",0
"SUB0156",1,"Experimental",2023-11-27,2023-11-30,3,0.0986,1,0,"Y","Y","F",">=65",0
"SUB0157",1,"Experimental",2023-10-14,2023-10-17,3,0.0986,1,0,"Y","Y","M",">=65",1
"SUB0158",0,"Control",2023-07-16,2023-07-20,4,0.1314,1,0,"Y","Y","M","<65",1
"SUB0159",0,"Control",2023-05-22,2023-05-25,3,0.0986,1,0,"Y","Y","M","<65",0
"SUB0160",0,"Control",2023-07-11,2023-07-17,6,0.1971,1,0,"N","Y","F",">=65",0
"SUB0161",0,"Control",2023-08-22,NA,132,4.3368,0,1,"Y","Y","F","<65",0
"SUB0162",1,"Experimental",2023-02-16,2023-02-21,5,0.1643,1,0,"N","Y","M","<65",0
"SUB0163",0,"Control",2023-07-12,2023-07-15,3,0.0986,1,0,"Y","Y","M","<65",0
"SUB0164",1,"Experimental",2023-02-18,2023-02-20,2,0.0657,1,0,"Y","Y","M",">=65",0
"SUB0165",1,"Experimental",2023-01-22,NA,48,1.577,0,1,"Y","Y","M","<65",0
"SUB0166",0,"Control",2023-09-14,2023-09-18,4,0.1314,1,0,"Y","Y","M",">=65",0
"SUB0167",1,"Experimental",2023-08-23,2023-08-27,4,0.1314,1,0,"Y","Y","F","<65",1
"SUB0168",0,"Control",2023-05-12,2023-05-24,12,0.3943,1,0,"Y","Y","F",">=65",1
"SUB0169",1,"Experimental",2023-03-08,2023-03-08,0,0,1,0,"Y","Y","F","<65",0
"SUB0170",1,"Experimental",2023-07-06,2023-07-12,6,0.1971,1,0,"Y","Y","M",">=65",0
"SUB0171",1,"Experimental",2023-02-22,2023-02-24,2,0.0657,1,0,"Y","Y","M","<65",1
"SUB0172",0,"Control",2023-05-05,2023-05-10,5,0.1643,1,0,"Y","Y","M","<65",0
"SUB0173",0,"Control",2023-02-28,2023-03-07,7,0.23,1,0,"Y","Y","F",">=65",0
"SUB0174",1,"Experimental",2023-11-21,2023-11-27,6,0.1971,1,0,"Y","Y","F","<65",0
"SUB0175",1,"Experimental",2023-06-19,2023-06-23,4,0.1314,1,0,"Y","Y","M","<65",0
"SUB0176",0,"Control",2023-07-09,2023-07-15,6,0.1971,1,0,"Y","Y","M","<65",1
"SUB0177",0,"Control",2023-06-11,2023-06-16,5,0.1643,1,0,"Y","Y","M","<65",1
"SUB0178",1,"Experimental",2023-03-28,2023-04-04,7,0.23,1,0,"Y","Y","F",">=65",0
"SUB0179",1,"Experimental",2023-08-16,2023-08-17,1,0.0329,1,0,"Y","Y","M",">=65",0
"SUB0180",1,"Experimental",2023-02-26,2023-03-03,5,0.1643,1,0,"Y","Y","F","<65",0
"SUB0181",1,"Experimental",2023-05-28,NA,163,5.3552,0,1,"Y","Y","M",">=65",1
"SUB0182",1,"Experimental",2023-01-27,2023-01-30,3,0.0986,1,0,"Y","Y","M",">=65",0
"SUB0183",0,"Control",2023-06-23,2023-06-26,3,0.0986,1,0,"Y","Y","F","<65",1
"SUB0184",1,"Experimental",2023-06-23,2023-06-29,6,0.1971,1,0,"Y","Y","F","<65",0
"SUB0185",0,"Control",2023-01-03,2023-01-09,6,0.1971,1,0,"Y","Y","F",">=65",0
"SUB0186",1,"Experimental",2023-04-05,2023-04-07,2,0.0657,1,0,"Y","Y","F","<65",0
"SUB0187",1,"Experimental",2023-07-10,2023-07-15,5,0.1643,1,0,"Y","Y","F","<65",0
"SUB0188",0,"Control",2023-05-18,NA,190,6.2423,0,1,"Y","Y","F",">=65",1
"SUB0189",0,"Control",2023-09-12,2023-09-17,5,0.1643,1,0,"Y","Y","F",">=65",0
"SUB0190",0,"Control",2023-03-25,2023-04-02,8,0.2628,1,0,"Y","Y","M",">=65",1
"SUB0191",1,"Experimental",2023-11-05,2023-11-09,4,0.1314,1,0,"Y","Y","M",">=65",0
"SUB0192",0,"Control",2023-12-23,2023-12-28,5,0.1643,1,0,"Y","Y","F",">=65",0
"SUB0193",1,"Experimental",2023-06-06,2023-06-09,3,0.0986,1,0,"Y","Y","F",">=65",0
"SUB0194",1,"Experimental",2023-08-26,2023-08-30,4,0.1314,1,0,"Y","Y","M",">=65",0
"SUB0195",0,"Control",2023-07-15,2023-07-15,0,0,1,0,"Y","Y","F","<65",1
"SUB0196",0,"Control",2023-06-17,2023-06-21,4,0.1314,1,0,"Y","Y","F",">=65",0
"SUB0197",0,"Control",2023-03-28,2023-03-30,2,0.0657,1,0,"Y","Y","M",">=65",1
"SUB0198",1,"Experimental",2023-08-06,2023-08-10,4,0.1314,1,0,"Y","Y","F","<65",0
"SUB0199",1,"Experimental",2023-11-28,2023-12-03,5,0.1643,1,0,"N","Y","M","<65",0
"SUB0200",0,"Control",2023-07-21,2023-07-26,5,0.1643,1,0,"Y","Y","M",">=65",1
