"USUBJID","STUDYID","TRT01PN","TRT01A","SEX","AGEGR1","ECOG","ITTFL","SAFFL","BOR","AVAL_ORR","AVAL_DCR","IS_RESPONDER","TIME_TO_RESPONSE","AVAL_DOR","CNSR_DOR"
"SUBJ-0001","BENCHMARK-001",0,"Control","Female","<65",1,"Y","Y","SD",0,1,0,NA,NA,NA
"SUBJ-0002","BENCHMARK-001",0,"Control","Male","<65",1,"Y","Y","PD",0,0,0,NA,NA,NA
"SUBJ-0003","BENCHMARK-001",0,"Control","Female",">=65",0,"Y","Y","PR",1,1,1,0.94,10.98,0
"SUBJ-0004","BENCHMARK-001",0,"Control","Male",">=65",0,"Y","Y","PD",0,0,0,NA,NA,NA
"SUBJ-0005","BENCHMARK-001",1,"Experimental","Male","<65",0,"Y","Y","PD",0,0,0,NA,NA,NA
"SUBJ-0006","BENCHMARK-001",1,"Experimental","Male","<65",0,"Y","Y","PD",0,0,0,NA,NA,NA
"SUBJ-0007","BENCHMARK-001",1,"Experimental","Female","<65",0,"Y","Y","CR",1,1,1,2.3,1.71,0
"SUBJ-0008","BENCHMARK-001",1,"Experimental","Male","<65",0,"N","Y","PR",1,1,1,1.59,12.72,0
"SUBJ-0009","BENCHMARK-001",0,"Control","Male","<65",0,"Y","N","PD",0,0,0,NA,NA,NA
"SUBJ-0010","BENCHMARK-001",1,"Experimental","Male","<65",0,"Y","Y","PR",1,1,1,3.94,0.79,1
"SUBJ-0011","BENCHMARK-001",0,"Control","Male","<65",0,"Y","Y","PD",0,0,0,NA,NA,NA
"SUBJ-0012","BENCHMARK-001",1,"Experimental","Female",">=65",1,"Y","Y","PD",0,0,0,NA,NA,NA
"SUBJ-0013","BENCHMARK-001",0,"Control","Male","<65",0,"Y","Y","PD",0,0,0,NA,NA,NA
"SUBJ-0014","BENCHMARK-001",1,"Experimental","Male","<65",1,"N","Y","PD",0,0,0,NA,NA,NA
"SUBJ-0015","BENCHMARK-001",0,"Control","Male","<65",1,"Y","Y","PD",0,0,0,NA,NA,NA
"SUBJ-0016","BENCHMARK-001",0,"Control","Female","<65",1,"Y","Y","PD",0,0,0,NA,NA,NA
"SUBJ-0017","BENCHMARK-001",1,"Experimental","Female","<65",1,"Y","Y","SD",0,1,0,NA,NA,NA
"SUBJ-0018","BENCHMARK-001",1,"Experimental","Male",">=65",0,"Y","Y","PD",0,0,0,NA,NA,NA
"SUBJ-0019","BENCHMARK-001",1,"Experimental","Male","<65",0,"Y","Y","PR",1,1,1,2.75,5.61,1
"SUBJ-0020","BENCHMARK-001",1,"Experimental","Female","<65",0,"Y","Y","SD",0,1,0,NA,NA,NA
"SUBJ-0021","BENCHMARK-001",0,"Control","Male","<65",0,"Y","Y","PR",1,1,1,0.11,15.38,0
"SUBJ-0022","BENCHMARK-001",0,"Control","Male","<65",1,"N","Y","PD",0,0,0,NA,NA,NA
"SUBJ-0023","BENCHMARK-001",0,"Control","Male","<65",0,"N","Y","SD",0,1,0,NA,NA,NA
"SUBJ-0024","BENCHMARK-001",0,"Control","Female","<65",0,"Y","Y","SD",0,1,0,NA,NA,NA
"SUBJ-0025","BENCHMARK-001",0,"Control","Male","<65",0,"Y","Y","PD",0,0,0,NA,NA,NA
"SUBJ-0026","BENCHMARK-001",1,"Experimental","Female","<65",1,"Y","Y","SD",0,1,0,NA,NA,NA
"SUBJ-0027","BENCHMARK-001",0,"Control","Male","<65",0,"Y","Y","PD",0,0,0,NA,NA,NA
"SUBJ-0028","BENCHMARK-001",0,"Control","Male","<65",0,"Y","Y","PD",0,0,0,NA,NA,NA
"SUBJ-0029","BENCHMARK-001",0,"Control","Male","<65",0,"Y","Y","CR",1,1,1,0.76,3.86,0
"SUBJ-0030","BENCHMARK-001",0,"Control","Male",">=65",0,"Y","Y","PR",1,1,1,3.96,0.98,0
"SUBJ-0031","BENCHMARK-001",1,"Experimental","Male","<65",0,"Y","Y","CR",1,1,1,1.2,2.17,0
"SUBJ-0032","BENCHMARK-001",1,"Experimental","Male",">=65",0,"Y","Y","SD",0,1,0,NA,NA,NA
"SUBJ-0033","BENCHMARK-001",1,"Experimental","Male","<65",0,"Y","Y","SD",0,1,0,NA,NA,NA
"SUBJ-0034","BENCHMARK-001",1,"Experimental","Male","<65",0,"Y","Y","SD",0,1,0,NA,NA,NA
"SUBJ-0035","BENCHMARK-001",0,"Control","Female","<65",0,"Y","Y","PD",0,0,0,NA,NA,NA
"SUBJ-0036","BENCHMARK-001",1,"Experimental","Female","<65",1,"Y","Y","SD",0,1,0,NA,NA,NA
"SUBJ-0037","BENCHMARK-001",0,"Control","Male",">=65",0,"Y","Y","PR",1,1,1,0.31,3.71,0
"SUBJ-0038","BENCHMARK-001",1,"Experimental","Female","<65",1,"Y","Y","SD",0,1,0,NA,NA,NA
"SUBJ-0039","BENCHMARK-001",1,"Experimental","Female","<65",1,"N","Y","PD",0,0,0,NA,NA,NA
"SUBJ-0040","BENCHMARK-001",1,"Experimental","Male","<65",0,"Y","Y","PD",0,0,0,NA,NA,NA
"SUBJ-0041","BENCHMARK-001",0,"Control","Male","<65",1,"Y","Y","CR",1,1,1,0.29,1.47,0
"SUBJ-0042","BENCHMARK-001",0,"Control","Female",">=65",1,"Y","Y","PD",0,0,0,NA,NA,NA
"SUBJ-0043","BENCHMARK-001",1,"Experimental","Male",">=65",0,"Y","Y","SD",0,1,0,NA,NA,NA
"SUBJ-0044","BENCHMARK-001",1,"Experimental","Male",">=65",0,"Y","Y","CR",1,1,1,0.11,1.2,0
"SUBJ-0045","BENCHMARK-001",1,"Experimental","Male","<65",0,"Y","Y","PR",1,1,1,3.19,28.78,1
"SUBJ-0046","BENCHMARK-001",1,"Experimental","Male",">=65",0,"Y","Y","SD",0,1,0,NA,NA,NA
"SUBJ-0047","BENCHMARK-001",1,"Experimental","Male",">=65",0,"Y","Y","PR",1,1,1,0.68,7.08,0
"SUBJ-0048","BENCHMARK-001",1,"Experimental","Male","<65",0,"Y","Y","CR",1,1,1,1.52,3.98,1
"SUBJ-0049","BENCHMARK-001",1,"Experimental","Male",">=65",1,"Y","Y","PR",1,1,1,2.94,0.79,1
"SUBJ-0050","BENCHMARK-001",0,"Control","Female","<65",0,"Y","Y","SD",0,1,0,NA,NA,NA
"SUBJ-0051","BENCHMARK-001",1,"Experimental","Male","<65",0,"Y","Y","CR",1,1,1,5.48,NA,1
"SUBJ-0052","BENCHMARK-001",0,"Control","Male","<65",1,"Y","Y","PD",0,0,0,NA,NA,NA
"SUBJ-0053","BENCHMARK-001",1,"Experimental","Male","<65",0,"Y","Y","SD",0,1,0,NA,NA,NA
"SUBJ-0054","BENCHMARK-001",1,"Experimental","Male","<65",0,"N","N","PR",1,1,1,2.81,0.16,0
"SUBJ-0055","BENCHMARK-001",1,"Experimental","Male",">=65",1,"Y","Y","PD",0,0,0,NA,NA,NA
"SUBJ-0056","BENCHMARK-001",1,"Experimental","Female","<65",0,"Y","Y","PR",1,1,1,0.48,8.94,0
"SUBJ-0057","BENCHMARK-001",0,"Control","Male","<65",0,"Y","Y","PD",0,0,0,NA,NA,NA
"SUBJ-0058","BENCHMARK-001",1,"Experimental","Male","<65",1,"Y","Y","PD",0,0,0,NA,NA,NA
"SUBJ-0059","BENCHMARK-001",0,"Control","Female","<65",0,"Y","Y","PD",0,0,0,NA,NA,NA
"SUBJ-0060","BENCHMARK-001",0,"Control","Female","<65",1,"N","Y","PD",0,0,0,NA,NA,NA
"SUBJ-0061","BENCHMARK-001",0,"Control","Female",">=65",1,"Y","Y","PD",0,0,0,NA,NA,NA
"SUBJ-0062","BENCHMARK-001",1,"Experimental","Male",">=65",1,"N","Y","CR",1,1,1,2.25,0.47,0
"SUBJ-0063","BENCHMARK-001",1,"Experimental","Male","<65",0,"Y","Y","PD",0,0,0,NA,NA,NA
"SUBJ-0064","BENCHMARK-001",1,"Experimental","Female","<65",0,"Y","Y","PD",0,0,0,NA,NA,NA
"SUBJ-0065","BENCHMARK-001",1,"Experimental","Male","<65",0,"Y","Y","SD",0,1,0,NA,NA,NA
"SUBJ-0066","BENCHMARK-001",1,"Experimental","Male",">=65",1,"Y","Y","SD",0,1,0,NA,NA,NA
"SUBJ-0067","BENCHMARK-001",1,"Experimental","Female",">=65",0,"Y","Y","CR",1,1,1,0.67,15.36,1
"SUBJ-0068","BENCHMARK-001",0,"Control","Male","<65",0,"Y","Y","PD",0,0,0,NA,NA,NA
"SUBJ-0069","BENCHMARK-001",1,"Experimental","Female","<65",0,"Y","Y","PD",0,0,0,NA,NA,NA
"SUBJ-0070","BENCHMARK-001",0,"Control","Female","<65",0,"Y","Y","PD",0,0,0,NA,NA,NA
"SUBJ-0071","BENCHMARK-001",1,"Experimental","Male",">=65",1,"Y","Y","SD",0,1,0,NA,NA,NA
"SUBJ-0072","BENCHMARK-001",0,"Control","Female","<65",1,"Y","Y","PD",0,0,0,NA,NA,NA
"SUBJ-0073","BENCHMARK-001",1,"Experimental","Male","<65",0,"Y","Y","PD",0,0,0,NA,NA,NA
"SUBJ-0074","BENCHMARK-001",1,"Experimental","Male","<65",1,"Y","Y","PR",1,1,1,0.51,0.75,0
"SUBJ-0075","BENCHMARK-001",1,"Experimental","Female","<65",0,"Y","Y","PD",0,0,0,NA,NA,NA
"SUBJ-0076","BENCHMARK-001",1,"Experimental","Male",">=65",1,"Y","Y","PD",0,0,0,NA,NA,NA
"SUBJ-0077","BENCHMARK-001",0,"Control","Male","<65",0,"Y","Y","PR",1,1,1,0.42,NA,1
"SUBJ-0078","BENCHMARK-001",0,"Control","Male","<65",0,"Y","Y","PD",0,0,0,NA,NA,NA
"SUBJ-0079","BENCHMARK-001",0,"Control","Male",">=65",1,"Y","Y","PD",0,0,0,NA,NA,NA
"SUBJ-0080","BENCHMARK-001",0,"Control","Male",">=65",0,"Y","Y","SD",0,1,0,NA,NA,NA
"SUBJ-0081","BENCHMARK-001",1,"Experimental","Male",">=65",1,"Y","Y","PD",0,0,0,NA,NA,NA
"SUBJ-0082","BENCHMARK-001",0,"Control","Male","<65",1,"Y","Y","PR",1,1,1,6.18,NA,1
"SUBJ-0083","BENCHMARK-001",1,"Experimental","Male","<65",1,"Y","Y","SD",0,1,0,NA,NA,NA
"SUBJ-0084","BENCHMARK-001",0,"Control","Female",">=65",1,"Y","Y","PD",0,0,0,NA,NA,NA
"SUBJ-0085","BENCHMARK-001",0,"Control","Male","<65",1,"Y","Y","PD",0,0,0,NA,NA,NA
"SUBJ-0086","BENCHMARK-001",1,"Experimental","Male","<65",0,"Y","Y","PD",0,0,0,NA,NA,NA
"SUBJ-0087","BENCHMARK-001",1,"Experimental","Male",">=65",0,"Y","Y","CR",1,1,1,1.81,3.4,1
"SUBJ-0088","BENCHMARK-001",0,"Control","Male","<65",0,"Y","Y","SD",0,1,0,NA,NA,NA
"SUBJ-0089","BENCHMARK-001",0,"Control","Male","<65",1,"Y","Y","PD",0,0,0,NA,NA,NA
"SUBJ-0090","BENCHMARK-001",0,"Control","Male","<65",1,"Y","Y","PD",0,0,0,NA,NA,NA
"SUBJ-0091","BENCHMARK-001",0,"Control","Female","<65",0,"Y","Y","PR",1,1,1,0.63,6.49,0
"SUBJ-0092","BENCHMARK-001",1,"Experimental","Female","<65",0,"Y","Y","PD",0,0,0,NA,NA,NA
"SUBJ-0093","BENCHMARK-001",0,"Control","Male","<65",1,"Y","Y","PD",0,0,0,NA,NA,NA
"SUBJ-0094","BENCHMARK-001",1,"Experimental","Male",">=65",0,"Y","Y","PD",0,0,0,NA,NA,NA
"SUBJ-0095","BENCHMARK-001",1,"Experimental","Male","<65",0,"Y","Y","PD",0,0,0,NA,NA,NA
"SUBJ-0096","BENCHMARK-001",1,"Experimental","Male","<65",1,"Y","Y","SD",0,1,0,NA,NA,NA
"SUBJ-0097","BENCHMARK-001",0,"Control","Female","<65",0,"Y","Y","SD",0,1,0,NA,NA,NA
"SUBJ-0098","BENCHMARK-001",1,"Experimental","Female",">=65",0,"Y","Y","SD",0,1,0,NA,NA,NA
"SUBJ-0099","BENCHMARK-001",1,"Experimental","Male","<65",1,"Y","Y","PR",1,1,1,1.54,33.25,0
"SUBJ-0100","BENCHMARK-001",1,"Experimental","Male","<65",1,"Y","Y","PD",0,0,0,NA,NA,NA
"SUBJ-0101","BENCHMARK-001",1,"Experimental","Male","<65",0,"Y","Y","PD",0,0,0,NA,NA,NA
"SUBJ-0102","BENCHMARK-001",1,"Experimental","Male",">=65",0,"Y","Y","CR",1,1,1,2.85,0.17,0
"SUBJ-0103","BENCHMARK-001",0,"Control","Male","<65",0,"Y","Y","PD",0,0,0,NA,NA,NA
"SUBJ-0104","BENCHMARK-001",1,"Experimental","Male",">=65",0,"Y","Y","SD",0,1,0,NA,NA,NA
"SUBJ-0105","BENCHMARK-001",0,"Control","Female","<65",0,"Y","Y","PD",0,0,0,NA,NA,NA
"SUBJ-0106","BENCHMARK-001",1,"Experimental","Female","<65",1,"Y","Y","SD",0,1,0,NA,NA,NA
"SUBJ-0107","BENCHMARK-001",1,"Experimental","Male","<65",0,"Y","Y","CR",1,1,1,4.8,NA,1
"SUBJ-0108","BENCHMARK-001",0,"Control","Male",">=65",0,"Y","Y","PD",0,0,0,NA,NA,NA
"SUBJ-0109","BENCHMARK-001",1,"Experimental","Male","<65",0,"Y","Y","CR",1,1,1,1.32,NA,1
"SUBJ-0110","BENCHMARK-001",0,"Control","Male","<65",0,"Y","N","PR",1,1,1,2.57,NA,1
"SUBJ-0111","BENCHMARK-001",1,"Experimental","Male","<65",0,"Y","Y","PR",1,1,1,5.16,NA,1
"SUBJ-0112","BENCHMARK-001",0,"Control","Female","<65",0,"Y","Y","PD",0,0,0,NA,NA,NA
"SUBJ-0113","BENCHMARK-001",1,"Experimental","Male","<65",1,"Y","Y","PR",1,1,1,1.67,16.76,0
"SUBJ-0114","BENCHMARK-001",0,"Control","Male","<65",1,"Y","Y","PD",0,0,0,NA,NA,NA
"SUBJ-0115","BENCHMARK-001",1,"Experimental","Male",">=65",1,"Y","Y","SD",0,1,0,NA,NA,NA
"SUBJ-0116","BENCHMARK-001",1,"Experimental","Female","<65",1,"Y","Y","PD",0,0,0,NA,NA,NA
"SUBJ-0117","BENCHMARK-001",0,"Control","Male","<65",1,"Y","Y","PD",0,0,0,NA,NA,NA
"SUBJ-0118","BENCHMARK-001",0,"Control","Female","<65",0,"Y","Y","PR",1,1,1,2.63,NA,1
"SUBJ-0119","BENCHMARK-001",0,"Control","Female","<65",0,"Y","Y","PD",0,0,0,NA,NA,NA
"SUBJ-0120","BENCHMARK-001",1,"Experimental","Female",">=65",0,"Y","Y","PR",1,1,1,4.82,NA,1
"SUBJ-0121","BENCHMARK-001",0,"Control","Male","<65",1,"Y","Y","SD",0,1,0,NA,NA,NA
"SUBJ-0122","BENCHMARK-001",1,"Experimental","Male","<65",1,"Y","Y","PR",1,1,1,1.61,0.57,1
"SUBJ-0123","BENCHMARK-001",1,"Experimental","Male","<65",1,"Y","Y","PD",0,0,0,NA,NA,NA
"SUBJ-0124","BENCHMARK-001",1,"Experimental","Male","<65",0,"Y","Y","SD",0,1,0,NA,NA,NA
"SUBJ-0125","BENCHMARK-001",1,"Experimental","Female",">=65",1,"Y","Y","PR",1,1,1,1.41,19.17,0
"SUBJ-0126","BENCHMARK-001",0,"Control","Female","<65",1,"Y","Y","PD",0,0,0,NA,NA,NA
"SUBJ-0127","BENCHMARK-001",0,"Control","Male",">=65",0,"Y","Y","PD",0,0,0,NA,NA,NA
"SUBJ-0128","BENCHMARK-001",1,"Experimental","Female","<65",0,"Y","Y","CR",1,1,1,2.23,1.39,0
"SUBJ-0129","BENCHMARK-001",0,"Control","Female","<65",0,"Y","Y","SD",0,1,0,NA,NA,NA
"SUBJ-0130","BENCHMARK-001",0,"Control","Female","<65",0,"Y","Y","SD",0,1,0,NA,NA,NA
"SUBJ-0131","BENCHMARK-001",0,"Control","Female",">=65",0,"Y","Y","PD",0,0,0,NA,NA,NA
"SUBJ-0132","BENCHMARK-001",1,"Experimental","Male","<65",1,"Y","Y","PR",1,1,1,0.29,3.51,0
"SUBJ-0133","BENCHMARK-001",0,"Control","Male","<65",1,"Y","Y","PD",0,0,0,NA,NA,NA
"SUBJ-0134","BENCHMARK-001",0,"Control","Male","<65",1,"Y","Y","SD",0,1,0,NA,NA,NA
"SUBJ-0135","BENCHMARK-001",1,"Experimental","Female",">=65",1,"Y","Y","PD",0,0,0,NA,NA,NA
"SUBJ-0136","BENCHMARK-001",1,"Experimental","Male","<65",0,"Y","Y","PR",1,1,1,4.71,9.63,0
"SUBJ-0137","BENCHMARK-001",1,"Experimental","Male","<65",0,"Y","Y","PD",0,0,0,NA,NA,NA
"SUBJ-0138","BENCHMARK-001",0,"Control","Male","<65",0,"Y","Y","PD",0,0,0,NA,NA,NA
"SUBJ-0139","BENCHMARK-001",0,"Control","Female","<65",0,"Y","Y","SD",0,1,0,NA,NA,NA
"SUBJ-0140","BENCHMARK-001",1,"Experimental","Male","<65",1,"Y","Y","SD",0,1,0,NA,NA,NA
"SUBJ-0141","BENCHMARK-001",0,"Control","Male","<65",0,"Y","Y","SD",0,1,0,NA,NA,NA
"SUBJ-0142","BENCHMARK-001",0,"Control","Male",">=65",0,"Y","Y","PR",1,1,1,0.11,1.09,0
"SUBJ-0143","BENCHMARK-001",1,"Experimental","Female","<65",0,"Y","Y","PD",0,0,0,NA,NA,NA
"SUBJ-0144","BENCHMARK-001",0,"Control","Male","<65",0,"Y","Y","PD",0,0,0,NA,NA,NA
"SUBJ-0145","BENCHMARK-001",0,"Control","Male",">=65",1,"Y","Y","PD",0,0,0,NA,NA,NA
"SUBJ-0146","BENCHMARK-001",0,"Control","Male","<65",0,"Y","Y","SD",0,1,0,NA,NA,NA
"SUBJ-0147","BENCHMARK-001",1,"Experimental","Female",">=65",0,"Y","Y","PD",0,0,0,NA,NA,NA
"SUBJ-0148","BENCHMARK-001",1,"Experimental","Male","<65",1,"Y","Y","SD",0,1,0,NA,NA,NA
"SUBJ-0149","BENCHMARK-001",0,"Control","Female","<65",0,"Y","Y","SD",0,1,0,NA,NA,NA
"SUBJ-0150","BENCHMARK-001",1,"Experimental","Female",">=65",0,"Y","Y","SD",0,1,0,NA,NA,NA
"SUBJ-0151","BENCHMARK-001",1,"Experimental","Male",">=65",0,"Y","Y","PR",1,1,1,0.88,14.76,1
"SUBJ-0152","BENCHMARK-001",1,"Experimental","Female","<65",0,"Y","Y","SD",0,1,0,NA,NA,NA
"SUBJ-0153","BENCHMARK-001",0,"Control","Male",">=65",0,"Y","Y","PR",1,1,1,3.72,NA,1
"SUBJ-0154","BENCHMARK-001",0,"Control","Male","<65",1,"Y","Y","PD",0,0,0,NA,NA,NA
"SUBJ-0155","BENCHMARK-001",0,"Control","Female","<65",0,"Y","Y","SD",0,1,0,NA,NA,NA
"SUBJ-0156","BENCHMARK-001",0,"Control","Male",">=65",1,"Y","Y","PR",1,1,1,0.64,0.67,1
"SUBJ-0157","BENCHMARK-001",0,"Control","Female","<65",1,"Y","Y","PD",0,0,0,NA,NA,NA
"SUBJ-0158","BENCHMARK-001",0,"Control","Female",">=65",1,"Y","Y","PD",0,0,0,NA,NA,NA
"SUBJ-0159","BENCHMARK-001",0,"Control","Male","<65",1,"Y","Y","PD",0,0,0,NA,NA,NA
"SUBJ-0160","BENCHMARK-001",1,"Experimental","Male","<65",1,"Y","Y","PD",0,0,0,NA,NA,NA
"SUBJ-0161","BENCHMARK-001",0,"Control","Female","<65",0,"Y","Y","PD",0,0,0,NA,NA,NA
"SUBJ-0162","BENCHMARK-001",1,"Experimental","Female","<65",1,"Y","Y","SD",0,1,0,NA,NA,NA
"SUBJ-0163","BENCHMARK-001",1,"Experimental","Male","<65",0,"N","Y","SD",0,1,0,NA,NA,NA
"SUBJ-0164","BENCHMARK-001",0,"Control","Female","<65",1,"Y","Y","PD",0,0,0,NA,NA,NA
"SUBJ-0165","BENCHMARK-001",1,"Experimental","Female","<65",0,"N","Y","PD",0,0,0,NA,NA,NA
"SUBJ-0166","BENCHMARK-001",1,"Experimental","Female","<65",1,"Y","Y","SD",0,1,0,NA,NA,NA
"SUBJ-0167","BENCHMARK-001",0,"Control","Female",">=65",0,"Y","Y","PD",0,0,0,NA,NA,NA
"SUBJ-0168","BENCHMARK-001",0,"Control","Female","<65",0,"Y","Y","SD",0,1,0,NA,NA,NA
"SUBJ-0169","BENCHMARK-001",1,"Experimental","Male","<65",1,"Y","Y","SD",0,1,0,NA,NA,NA
"SUBJ-0170","BENCHMARK-001",0,"Control","Male","<65",0,"Y","Y","PD",0,0,0,NA,NA,NA
"SUBJ-0171","BENCHMARK-001",1,"Experimental","Male",">=65",0,"N","Y","PD",0,0,0,NA,NA,NA
"SUBJ-0172","BENCHMARK-001",0,"Control","Male","<65",0,"Y","Y","SD",0,1,0,NA,NA,NA
"SUBJ-0173","BENCHMARK-001",1,"Experimental","Female",">=65",1,"Y","Y","PR",1,1,1,0.3,2.02,0
"SUBJ-0174","BENCHMARK-001",1,"Experimental","Male","<65",0,"Y","Y","PR",1,1,1,5.64,0.87,0
"SUBJ-0175","BENCHMARK-001",0,"Control","Female",">=65",0,"Y","N","PD",0,0,0,NA,NA,NA
"SUBJ-0176","BENCHMARK-001",1,"Experimental","Female","<65",0,"Y","Y","SD",0,1,0,NA,NA,NA
"SUBJ-0177","BENCHMARK-001",0,"Control","Male","<65",0,"Y","Y","PD",0,0,0,NA,NA,NA
"SUBJ-0178","BENCHMARK-001",1,"Experimental","Male","<65",0,"Y","Y","PR",1,1,1,0.26,9.55,1
"SUBJ-0179","BENCHMARK-001",1,"Experimental","Male","<65",1,"Y","Y","SD",0,1,0,NA,NA,NA
"SUBJ-0180","BENCHMARK-001",1,"Experimental","Female",">=65",0,"Y","Y","CR",1,1,1,1.38,5.97,0
"SUBJ-0181","BENCHMARK-001",1,"Experimental","Female",">=65",0,"Y","Y","SD",0,1,0,NA,NA,NA
"SUBJ-0182","BENCHMARK-001",1,"Experimental","Male","<65",0,"Y","Y","PD",0,0,0,NA,NA,NA
"SUBJ-0183","BENCHMARK-001",1,"Experimental","Male","<65",0,"Y","Y","PR",1,1,1,1,7.77,0
"SUBJ-0184","BENCHMARK-001",0,"Control","Male",">=65",1,"Y","Y","PD",0,0,0,NA,NA,NA
"SUBJ-0185","BENCHMARK-001",1,"Experimental","Female","<65",0,"Y","Y","CR",1,1,1,0.26,7.35,1
"SUBJ-0186","BENCHMARK-001",1,"Experimental","Female","<65",0,"Y","Y","PR",1,1,1,1.34,NA,1
"SUBJ-0187","BENCHMARK-001",1,"Experimental","Male","<65",1,"Y","Y","PD",0,0,0,NA,NA,NA
"SUBJ-0188","BENCHMARK-001",0,"Control","Female",">=65",0,"Y","Y","PD",0,0,0,NA,NA,NA
"SUBJ-0189","BENCHMARK-001",1,"Experimental","Male",">=65",0,"Y","Y","PD",0,0,0,NA,NA,NA
"SUBJ-0190","BENCHMARK-001",1,"Experimental","Male",">=65",1,"Y","Y","PR",1,1,1,2.65,13.8,0
"SUBJ-0191","BENCHMARK-001",0,"Control","Female","<65",1,"Y","Y","PD",0,0,0,NA,NA,NA
"SUBJ-0192","BENCHMARK-001",1,"Experimental","Male","<65",0,"Y","N","CR",1,1,1,0.22,4.93,0
"SUBJ-0193","BENCHMARK-001",1,"Experimental","Female","<65",1,"Y","Y","PD",0,0,0,NA,NA,NA
"SUBJ-0194","BENCHMARK-001",1,"Experimental","Male","<65",1,"Y","Y","PD",0,0,0,NA,NA,NA
"SUBJ-0195","BENCHMARK-001",1,"Experimental","Female","<65",0,"Y","Y","PR",1,1,1,1.06,12.26,0
"SUBJ-0196","BENCHMARK-001",1,"Experimental","Male",">=65",0,"Y","Y","PR",1,1,1,0.54,1.68,0
"SUBJ-0197","BENCHMARK-001",0,"Control","Female","<65",0,"Y","Y","PD",0,0,0,NA,NA,NA
"SUBJ-0198","BENCHMARK-001",0,"Control","Female","<65",0,"Y","Y","PD",0,0,0,NA,NA,NA
"SUBJ-0199","BENCHMARK-001",1,"Experimental","Female","<65",0,"N","Y","PR",1,1,1,1.9,7.17,0
"SUBJ-0200","BENCHMARK-001",1,"Experimental","Male",">=65",0,"Y","Y","PD",0,0,0,NA,NA,NA
