"USUBJID","STUDYID","TRT01P","TRT01PN","SAFFL","AESOC","AEDECOD","AESEV","AETOXGR","AESER","AEACN","AESTDY"
"SUBJ-0001","BENCHMARK-010","Placebo",0,"Y","Skin and subcutaneous tissue disorders","Rash","Grade 2",2,"N","None",235
"SUBJ-0001","BENCHMARK-010","Placebo",0,"Y","Gastrointestinal disorders","Diarrhoea","Grade 3",3,"Y","Dose reduced",331
"SUBJ-0002","BENCHMARK-010","Placebo",0,"Y","Gastrointestinal disorders","Diarrhoea","Grade 2",2,"N","None",173
"SUBJ-0002","BENCHMARK-010","Placebo",0,"Y","Metabolism and nutrition disorders","Decreased appetite","Grade 4",4,"Y","Drug withdrawn",249
"SUBJ-0002","BENCHMARK-010","Placebo",0,"Y","Blood and lymphatic system disorders","Thrombocytopenia","Grade 4",4,"Y","Drug withdrawn",25
"SUBJ-0002","BENCHMARK-010","Placebo",0,"Y","Metabolism and nutrition disorders","Hypokalaemia","Grade 4",4,"Y","Drug withdrawn",82
"SUBJ-0003","BENCHMARK-010","Placebo",0,"Y","Nervous system disorders","Peripheral sensory neuropathy","Grade 1",1,"N","None",54
"SUBJ-0003","BENCHMARK-010","Placebo",0,"Y","Respiratory, thoracic and mediastinal disorders","Dyspnoea","Grade 4",4,"Y","Drug withdrawn",257
"SUBJ-0003","BENCHMARK-010","Placebo",0,"Y","Nervous system disorders","Peripheral sensory neuropathy","Grade 3",3,"Y","Dose reduced",55
"SUBJ-0003","BENCHMARK-010","Placebo",0,"Y","Gastrointestinal disorders","Nausea","Grade 1",1,"N","None",10
"SUBJ-0003","BENCHMARK-010","Placebo",0,"Y","Blood and lymphatic system disorders","Anaemia","Grade 1",1,"N","None",185
"SUBJ-0004","BENCHMARK-010","Placebo",0,"Y","Nervous system disorders","Headache","Grade 1",1,"N","None",58
"SUBJ-0004","BENCHMARK-010","Placebo",0,"Y","Blood and lymphatic system disorders","Anaemia","Grade 2",2,"N","None",318
"SUBJ-0005","BENCHMARK-010","Placebo",0,"Y","Gastrointestinal disorders","Constipation","Grade 2",2,"N","None",4
"SUBJ-0005","BENCHMARK-010","Placebo",0,"Y","General disorders","Oedema peripheral","Grade 1",1,"N","None",172
"SUBJ-0005","BENCHMARK-010","Placebo",0,"Y","Blood and lymphatic system disorders","Thrombocytopenia","Grade 3",3,"N","None",373
"SUBJ-0005","BENCHMARK-010","Placebo",0,"Y","Investigations","Blood creatinine increased","Grade 1",1,"N","None",263
"SUBJ-0007","BENCHMARK-010","Placebo",0,"Y","Skin and subcutaneous tissue disorders","Pruritus","Grade 1",1,"N","None",72
"SUBJ-0007","BENCHMARK-010","Placebo",0,"Y","Gastrointestinal disorders","Abdominal pain","Grade 3",3,"N","Dose reduced",51
"SUBJ-0007","BENCHMARK-010","Placebo",0,"Y","Metabolism and nutrition disorders","Hypokalaemia","Grade 4",4,"Y","Drug withdrawn",416
"SUBJ-0008","BENCHMARK-010","Placebo",0,"Y","General disorders","Fatigue","Grade 2",2,"N","Dose interrupted",298
"SUBJ-0009","BENCHMARK-010","Placebo",0,"Y","Blood and lymphatic system disorders","Thrombocytopenia","Grade 1",1,"N","Dose interrupted",74
"SUBJ-0009","BENCHMARK-010","Placebo",0,"Y","Gastrointestinal disorders","Abdominal pain","Grade 2",2,"N","None",59
"SUBJ-0009","BENCHMARK-010","Placebo",0,"Y","Gastrointestinal disorders","Nausea","Grade 1",1,"N","None",67
"SUBJ-0012","BENCHMARK-010","Placebo",0,"Y","Skin and subcutaneous tissue disorders","Pruritus","Grade 4",4,"Y","Drug withdrawn",45
"SUBJ-0012","BENCHMARK-010","Placebo",0,"Y","Skin and subcutaneous tissue disorders","Rash","Grade 1",1,"N","None",374
"SUBJ-0012","BENCHMARK-010","Placebo",0,"Y","Nervous system disorders","Dizziness","Grade 2",2,"N","None",441
"SUBJ-0014","BENCHMARK-010","Placebo",0,"Y","Gastrointestinal disorders","Abdominal pain","Grade 5",5,"Y","Drug withdrawn",77
"SUBJ-0014","BENCHMARK-010","Placebo",0,"Y","General disorders","Oedema peripheral","Grade 1",1,"N","Dose interrupted",198
"SUBJ-0015","BENCHMARK-010","Placebo",0,"Y","General disorders","Fatigue","Grade 2",2,"N","Dose interrupted",98
"SUBJ-0015","BENCHMARK-010","Placebo",0,"Y","General disorders","Oedema peripheral","Grade 3",3,"N","None",67
"SUBJ-0016","BENCHMARK-010","Placebo",0,"Y","General disorders","Pyrexia","Grade 1",1,"N","None",194
"SUBJ-0016","BENCHMARK-010","Placebo",0,"Y","General disorders","Oedema peripheral","Grade 3",3,"Y","None",355
"SUBJ-0016","BENCHMARK-010","Placebo",0,"Y","Skin and subcutaneous tissue disorders","Pruritus","Grade 2",2,"N","None",330
"SUBJ-0018","BENCHMARK-010","Placebo",0,"Y","Respiratory, thoracic and mediastinal disorders","Cough","Grade 1",1,"N","None",116
"SUBJ-0018","BENCHMARK-010","Placebo",0,"Y","Respiratory, thoracic and mediastinal disorders","Cough","Grade 1",1,"N","None",153
"SUBJ-0018","BENCHMARK-010","Placebo",0,"Y","Blood and lymphatic system disorders","Thrombocytopenia","Grade 1",1,"N","None",162
"SUBJ-0018","BENCHMARK-010","Placebo",0,"Y","General disorders","Pyrexia","Grade 1",1,"N","Dose interrupted",89
"SUBJ-0018","BENCHMARK-010","Placebo",0,"Y","Nervous system disorders","Headache","Grade 1",1,"N","None",119
"SUBJ-0018","BENCHMARK-010","Placebo",0,"Y","Nervous system disorders","Dizziness","Grade 3",3,"Y","None",69
"SUBJ-0019","BENCHMARK-010","Placebo",0,"Y","Nervous system disorders","Peripheral sensory neuropathy","Grade 1",1,"N","Dose interrupted",39
"SUBJ-0019","BENCHMARK-010","Placebo",0,"Y","General disorders","Pyrexia","Grade 1",1,"N","None",213
"SUBJ-0019","BENCHMARK-010","Placebo",0,"Y","Nervous system disorders","Headache","Grade 3",3,"N","None",11
"SUBJ-0019","BENCHMARK-010","Placebo",0,"Y","Investigations","Blood creatinine increased","Grade 3",3,"N","Dose reduced",318
"SUBJ-0019","BENCHMARK-010","Placebo",0,"Y","Investigations","Blood creatinine increased","Grade 2",2,"N","None",174
"SUBJ-0021","BENCHMARK-010","Placebo",0,"Y","Investigations","Blood creatinine increased","Grade 3",3,"N","None",310
"SUBJ-0021","BENCHMARK-010","Placebo",0,"Y","Skin and subcutaneous tissue disorders","Alopecia","Grade 1",1,"N","None",14
"SUBJ-0024","BENCHMARK-010","Placebo",0,"Y","Nervous system disorders","Dizziness","Grade 1",1,"N","None",38
"SUBJ-0024","BENCHMARK-010","Placebo",0,"Y","Nervous system disorders","Dizziness","Grade 1",1,"N","None",415
"SUBJ-0026","BENCHMARK-010","Placebo",0,"Y","Blood and lymphatic system disorders","Thrombocytopenia","Grade 4",4,"Y","Drug withdrawn",326
"SUBJ-0026","BENCHMARK-010","Placebo",0,"Y","Metabolism and nutrition disorders","Decreased appetite","Grade 3",3,"N","None",501
"SUBJ-0026","BENCHMARK-010","Placebo",0,"Y","Skin and subcutaneous tissue disorders","Rash","Grade 3",3,"N","None",509
"SUBJ-0026","BENCHMARK-010","Placebo",0,"Y","Skin and subcutaneous tissue disorders","Rash","Grade 1",1,"N","None",549
"SUBJ-0027","BENCHMARK-010","Placebo",0,"Y","Nervous system disorders","Peripheral sensory neuropathy","Grade 1",1,"N","None",150
"SUBJ-0027","BENCHMARK-010","Placebo",0,"Y","Nervous system disorders","Headache","Grade 1",1,"N","None",153
"SUBJ-0027","BENCHMARK-010","Placebo",0,"Y","Respiratory, thoracic and mediastinal disorders","Cough","Grade 1",1,"N","None",56
"SUBJ-0030","BENCHMARK-010","Placebo",0,"Y","Blood and lymphatic system disorders","Thrombocytopenia","Grade 1",1,"N","None",360
"SUBJ-0030","BENCHMARK-010","Placebo",0,"Y","Skin and subcutaneous tissue disorders","Rash","Grade 1",1,"N","Dose interrupted",333
"SUBJ-0030","BENCHMARK-010","Placebo",0,"Y","Investigations","Blood creatinine increased","Grade 5",5,"Y","Drug withdrawn",189
"SUBJ-0030","BENCHMARK-010","Placebo",0,"Y","Respiratory, thoracic and mediastinal disorders","Dyspnoea","Grade 2",2,"N","None",8
"SUBJ-0030","BENCHMARK-010","Placebo",0,"Y","Gastrointestinal disorders","Diarrhoea","Grade 3",3,"N","Dose reduced",323
"SUBJ-0030","BENCHMARK-010","Placebo",0,"Y","Skin and subcutaneous tissue disorders","Alopecia","Grade 1",1,"N","None",261
"SUBJ-0036","BENCHMARK-010","Placebo",0,"Y","Skin and subcutaneous tissue disorders","Alopecia","Grade 1",1,"N","None",154
"SUBJ-0036","BENCHMARK-010","Placebo",0,"Y","Metabolism and nutrition disorders","Hypokalaemia","Grade 1",1,"N","None",175
"SUBJ-0037","BENCHMARK-010","Placebo",0,"Y","Skin and subcutaneous tissue disorders","Alopecia","Grade 2",2,"N","None",364
"SUBJ-0037","BENCHMARK-010","Placebo",0,"Y","Gastrointestinal disorders","Constipation","Grade 1",1,"N","None",375
"SUBJ-0037","BENCHMARK-010","Placebo",0,"Y","Investigations","Blood creatinine increased","Grade 1",1,"N","None",255
"SUBJ-0038","BENCHMARK-010","Placebo",0,"Y","Respiratory, thoracic and mediastinal disorders","Cough","Grade 1",1,"N","None",99
"SUBJ-0038","BENCHMARK-010","Placebo",0,"Y","General disorders","Fatigue","Grade 1",1,"N","Dose interrupted",85
"SUBJ-0038","BENCHMARK-010","Placebo",0,"Y","Blood and lymphatic system disorders","Thrombocytopenia","Grade 3",3,"N","Dose reduced",189
"SUBJ-0038","BENCHMARK-010","Placebo",0,"Y","Metabolism and nutrition disorders","Hypokalaemia","Grade 5",5,"Y","Drug withdrawn",89
"SUBJ-0042","BENCHMARK-010","Placebo",0,"Y","Skin and subcutaneous tissue disorders","Rash","Grade 1",1,"N","Dose interrupted",12
"SUBJ-0042","BENCHMARK-010","Placebo",0,"Y","Skin and subcutaneous tissue disorders","Rash","Grade 2",2,"N","Dose interrupted",91
"SUBJ-0044","BENCHMARK-010","Placebo",0,"Y","Skin and subcutaneous tissue disorders","Alopecia","Grade 1",1,"N","None",81
"SUBJ-0044","BENCHMARK-010","Placebo",0,"Y","Respiratory, thoracic and mediastinal disorders","Cough","Grade 2",2,"N","None",355
"SUBJ-0045","BENCHMARK-010","Placebo",0,"Y","Gastrointestinal disorders","Diarrhoea","Grade 1",1,"N","None",206
"SUBJ-0045","BENCHMARK-010","Placebo",0,"Y","Investigations","AST increased","Grade 2",2,"N","None",208
"SUBJ-0047","BENCHMARK-010","Placebo",0,"Y","Skin and subcutaneous tissue disorders","Pruritus","Grade 2",2,"N","None",50
"SUBJ-0048","BENCHMARK-010","Placebo",0,"Y","Blood and lymphatic system disorders","Thrombocytopenia","Grade 3",3,"Y","Dose reduced",105
"SUBJ-0049","BENCHMARK-010","Placebo",0,"Y","Blood and lymphatic system disorders","Anaemia","Grade 1",1,"N","None",212
"SUBJ-0049","BENCHMARK-010","Placebo",0,"Y","General disorders","Fatigue","Grade 3",3,"N","Dose interrupted",158
"SUBJ-0049","BENCHMARK-010","Placebo",0,"Y","Skin and subcutaneous tissue disorders","Alopecia","Grade 1",1,"N","None",19
"SUBJ-0049","BENCHMARK-010","Placebo",0,"Y","Metabolism and nutrition disorders","Hypokalaemia","Grade 1",1,"N","None",161
"SUBJ-0050","BENCHMARK-010","Placebo",0,"Y","Respiratory, thoracic and mediastinal disorders","Cough","Grade 1",1,"N","None",102
"SUBJ-0053","BENCHMARK-010","Placebo",0,"Y","Nervous system disorders","Dizziness","Grade 1",1,"N","None",271
"SUBJ-0053","BENCHMARK-010","Placebo",0,"Y","Skin and subcutaneous tissue disorders","Rash","Grade 1",1,"N","None",358
"SUBJ-0053","BENCHMARK-010","Placebo",0,"Y","Gastrointestinal disorders","Vomiting","Grade 1",1,"N","None",226
"SUBJ-0055","BENCHMARK-010","Placebo",0,"Y","Nervous system disorders","Headache","Grade 1",1,"N","None",65
"SUBJ-0057","BENCHMARK-010","Placebo",0,"Y","Skin and subcutaneous tissue disorders","Pruritus","Grade 1",1,"N","None",289
"SUBJ-0058","BENCHMARK-010","Placebo",0,"Y","General disorders","Oedema peripheral","Grade 2",2,"N","None",129
"SUBJ-0058","BENCHMARK-010","Placebo",0,"Y","Gastrointestinal disorders","Constipation","Grade 2",2,"N","None",86
"SUBJ-0059","BENCHMARK-010","Placebo",0,"Y","Nervous system disorders","Headache","Grade 3",3,"N","None",238
"SUBJ-0059","BENCHMARK-010","Placebo",0,"Y","Metabolism and nutrition disorders","Hypokalaemia","Grade 2",2,"N","None",26
"SUBJ-0060","BENCHMARK-010","Placebo",0,"Y","Gastrointestinal disorders","Nausea","Grade 1",1,"N","None",72
"SUBJ-0060","BENCHMARK-010","Placebo",0,"Y","Respiratory, thoracic and mediastinal disorders","Dyspnoea","Grade 1",1,"N","None",364
"SUBJ-0060","BENCHMARK-010","Placebo",0,"Y","Blood and lymphatic system disorders","Anaemia","Grade 1",1,"N","None",190
"SUBJ-0063","BENCHMARK-010","Placebo",0,"Y","Gastrointestinal disorders","Nausea","Grade 1",1,"N","None",276
"SUBJ-0063","BENCHMARK-010","Placebo",0,"Y","Nervous system disorders","Headache","Grade 1",1,"N","None",245
"SUBJ-0065","BENCHMARK-010","Placebo",0,"Y","General disorders","Fatigue","Grade 2",2,"N","None",223
"SUBJ-0065","BENCHMARK-010","Placebo",0,"Y","Blood and lymphatic system disorders","Anaemia","Grade 4",4,"Y","Drug withdrawn",232
"SUBJ-0065","BENCHMARK-010","Placebo",0,"Y","Metabolism and nutrition disorders","Hypokalaemia","Grade 1",1,"N","Dose interrupted",23
"SUBJ-0068","BENCHMARK-010","Placebo",0,"Y","Skin and subcutaneous tissue disorders","Pruritus","Grade 2",2,"N","None",274
"SUBJ-0071","BENCHMARK-010","Placebo",0,"Y","Blood and lymphatic system disorders","Thrombocytopenia","Grade 4",4,"Y","Drug withdrawn",3
"SUBJ-0072","BENCHMARK-010","Placebo",0,"Y","Investigations","ALT increased","Grade 1",1,"N","None",80
"SUBJ-0072","BENCHMARK-010","Placebo",0,"Y","Blood and lymphatic system disorders","Neutropenia","Grade 1",1,"N","None",308
"SUBJ-0072","BENCHMARK-010","Placebo",0,"Y","Skin and subcutaneous tissue disorders","Rash","Grade 1",1,"N","None",270
"SUBJ-0072","BENCHMARK-010","Placebo",0,"Y","Respiratory, thoracic and mediastinal disorders","Dyspnoea","Grade 2",2,"N","None",4
"SUBJ-0074","BENCHMARK-010","Placebo",0,"Y","Nervous system disorders","Dizziness","Grade 1",1,"N","None",40
"SUBJ-0074","BENCHMARK-010","Placebo",0,"Y","Gastrointestinal disorders","Vomiting","Grade 5",5,"Y","Drug withdrawn",169
"SUBJ-0075","BENCHMARK-010","Placebo",0,"Y","Blood and lymphatic system disorders","Thrombocytopenia","Grade 4",4,"Y","Drug withdrawn",34
"SUBJ-0075","BENCHMARK-010","Placebo",0,"Y","General disorders","Fatigue","Grade 1",1,"N","None",227
"SUBJ-0075","BENCHMARK-010","Placebo",0,"Y","Metabolism and nutrition disorders","Decreased appetite","Grade 1",1,"N","None",289
"SUBJ-0075","BENCHMARK-010","Placebo",0,"Y","Metabolism and nutrition disorders","Decreased appetite","Grade 2",2,"N","None",409
"SUBJ-0075","BENCHMARK-010","Placebo",0,"Y","Investigations","ALT increased","Grade 3",3,"Y","None",296
"SUBJ-0075","BENCHMARK-010","Placebo",0,"Y","Respiratory, thoracic and mediastinal disorders","Dyspnoea","Grade 1",1,"N","None",380
"SUBJ-0076","BENCHMARK-010","Placebo",0,"Y","Metabolism and nutrition disorders","Decreased appetite","Grade 3",3,"N","Dose interrupted",227
"SUBJ-0076","BENCHMARK-010","Placebo",0,"Y","Gastrointestinal disorders","Diarrhoea","Grade 1",1,"N","None",94
"SUBJ-0078","BENCHMARK-010","Placebo",0,"Y","Gastrointestinal disorders","Abdominal pain","Grade 1",1,"N","None",59
"SUBJ-0079","BENCHMARK-010","Placebo",0,"Y","Gastrointestinal disorders","Nausea","Grade 1",1,"N","None",53
"SUBJ-0080","BENCHMARK-010","Placebo",0,"Y","Respiratory, thoracic and mediastinal disorders","Dyspnoea","Grade 3",3,"Y","None",67
"SUBJ-0080","BENCHMARK-010","Placebo",0,"Y","Investigations","Blood creatinine increased","Grade 1",1,"N","None",11
"SUBJ-0080","BENCHMARK-010","Placebo",0,"Y","Gastrointestinal disorders","Constipation","Grade 2",2,"N","Dose interrupted",58
"SUBJ-0085","BENCHMARK-010","Placebo",0,"Y","Blood and lymphatic system disorders","Anaemia","Grade 2",2,"N","None",225
"SUBJ-0085","BENCHMARK-010","Placebo",0,"Y","Blood and lymphatic system disorders","Anaemia","Grade 1",1,"N","Dose interrupted",463
"SUBJ-0086","BENCHMARK-010","Placebo",0,"Y","Gastrointestinal disorders","Abdominal pain","Grade 1",1,"N","None",328
"SUBJ-0087","BENCHMARK-010","Placebo",0,"Y","Blood and lymphatic system disorders","Thrombocytopenia","Grade 4",4,"Y","Drug withdrawn",3
"SUBJ-0087","BENCHMARK-010","Placebo",0,"Y","Gastrointestinal disorders","Abdominal pain","Grade 2",2,"N","None",227
"SUBJ-0088","BENCHMARK-010","Placebo",0,"Y","General disorders","Fatigue","Grade 1",1,"N","None",323
"SUBJ-0088","BENCHMARK-010","Placebo",0,"Y","General disorders","Fatigue","Grade 1",1,"N","Dose interrupted",255
"SUBJ-0088","BENCHMARK-010","Placebo",0,"Y","Gastrointestinal disorders","Diarrhoea","Grade 1",1,"N","Dose interrupted",211
"SUBJ-0088","BENCHMARK-010","Placebo",0,"Y","Nervous system disorders","Headache","Grade 2",2,"N","Dose interrupted",129
"SUBJ-0088","BENCHMARK-010","Placebo",0,"Y","Metabolism and nutrition disorders","Hypokalaemia","Grade 1",1,"N","None",216
"SUBJ-0088","BENCHMARK-010","Placebo",0,"Y","Respiratory, thoracic and mediastinal disorders","Cough","Grade 5",5,"Y","Drug withdrawn",237
"SUBJ-0089","BENCHMARK-010","Placebo",0,"Y","Blood and lymphatic system disorders","Thrombocytopenia","Grade 2",2,"N","None",329
"SUBJ-0089","BENCHMARK-010","Placebo",0,"Y","General disorders","Fatigue","Grade 1",1,"N","Dose interrupted",206
"SUBJ-0089","BENCHMARK-010","Placebo",0,"Y","Skin and subcutaneous tissue disorders","Alopecia","Grade 1",1,"N","None",189
"SUBJ-0090","BENCHMARK-010","Placebo",0,"Y","Blood and lymphatic system disorders","Anaemia","Grade 2",2,"N","None",368
"SUBJ-0090","BENCHMARK-010","Placebo",0,"Y","Skin and subcutaneous tissue disorders","Alopecia","Grade 2",2,"N","Dose interrupted",249
"SUBJ-0090","BENCHMARK-010","Placebo",0,"Y","Nervous system disorders","Headache","Grade 1",1,"N","None",481
"SUBJ-0090","BENCHMARK-010","Placebo",0,"Y","Respiratory, thoracic and mediastinal disorders","Dyspnoea","Grade 1",1,"N","Dose interrupted",360
"SUBJ-0090","BENCHMARK-010","Placebo",0,"Y","Respiratory, thoracic and mediastinal disorders","Cough","Grade 1",1,"N","Dose interrupted",461
"SUBJ-0091","BENCHMARK-010","Placebo",0,"Y","General disorders","Pyrexia","Grade 2",2,"N","None",96
"SUBJ-0091","BENCHMARK-010","Placebo",0,"Y","Gastrointestinal disorders","Vomiting","Grade 2",2,"N","None",109
"SUBJ-0092","BENCHMARK-010","Placebo",0,"Y","Blood and lymphatic system disorders","Anaemia","Grade 1",1,"N","None",218
"SUBJ-0092","BENCHMARK-010","Placebo",0,"Y","Gastrointestinal disorders","Diarrhoea","Grade 2",2,"N","Dose interrupted",296
"SUBJ-0095","BENCHMARK-010","Placebo",0,"Y","General disorders","Fatigue","Grade 3",3,"N","Dose reduced",272
"SUBJ-0095","BENCHMARK-010","Placebo",0,"Y","Metabolism and nutrition disorders","Hypokalaemia","Grade 2",2,"N","None",130
"SUBJ-0095","BENCHMARK-010","Placebo",0,"Y","Blood and lymphatic system disorders","Neutropenia","Grade 2",2,"N","None",168
"SUBJ-0096","BENCHMARK-010","Placebo",0,"Y","Blood and lymphatic system disorders","Neutropenia","Grade 2",2,"N","None",400
"SUBJ-0096","BENCHMARK-010","Placebo",0,"Y","Metabolism and nutrition disorders","Decreased appetite","Grade 1",1,"N","None",359
"SUBJ-0098","BENCHMARK-010","Placebo",0,"Y","Nervous system disorders","Dizziness","Grade 1",1,"N","None",251
"SUBJ-0099","BENCHMARK-010","Placebo",0,"Y","General disorders","Pyrexia","Grade 1",1,"N","None",451
"SUBJ-0099","BENCHMARK-010","Placebo",0,"Y","Respiratory, thoracic and mediastinal disorders","Dyspnoea","Grade 2",2,"N","None",389
"SUBJ-0099","BENCHMARK-010","Placebo",0,"Y","Respiratory, thoracic and mediastinal disorders","Cough","Grade 3",3,"N","None",300
"SUBJ-0100","BENCHMARK-010","Placebo",0,"Y","General disorders","Oedema peripheral","Grade 1",1,"N","None",8
"SUBJ-0102","BENCHMARK-010","Placebo",0,"Y","Blood and lymphatic system disorders","Thrombocytopenia","Grade 2",2,"N","None",54
"SUBJ-0102","BENCHMARK-010","Placebo",0,"Y","Skin and subcutaneous tissue disorders","Pruritus","Grade 2",2,"N","None",6
"SUBJ-0104","BENCHMARK-010","Placebo",0,"Y","Respiratory, thoracic and mediastinal disorders","Cough","Grade 1",1,"N","None",149
"SUBJ-0104","BENCHMARK-010","Placebo",0,"Y","Gastrointestinal disorders","Abdominal pain","Grade 5",5,"Y","Drug withdrawn",14
"SUBJ-0107","BENCHMARK-010","Placebo",0,"Y","Skin and subcutaneous tissue disorders","Rash","Grade 2",2,"N","None",99
"SUBJ-0108","BENCHMARK-010","Placebo",0,"Y","General disorders","Oedema peripheral","Grade 2",2,"N","Dose interrupted",61
"SUBJ-0108","BENCHMARK-010","Placebo",0,"Y","General disorders","Pyrexia","Grade 1",1,"N","None",128
"SUBJ-0108","BENCHMARK-010","Placebo",0,"Y","Metabolism and nutrition disorders","Decreased appetite","Grade 1",1,"N","None",13
"SUBJ-0108","BENCHMARK-010","Placebo",0,"Y","General disorders","Pyrexia","Grade 2",2,"N","None",56
"SUBJ-0108","BENCHMARK-010","Placebo",0,"Y","Skin and subcutaneous tissue disorders","Rash","Grade 1",1,"N","None",66
"SUBJ-0109","BENCHMARK-010","Placebo",0,"Y","General disorders","Pyrexia","Grade 1",1,"N","None",139
"SUBJ-0109","BENCHMARK-010","Placebo",0,"Y","Skin and subcutaneous tissue disorders","Pruritus","Grade 4",4,"Y","Drug withdrawn",299
"SUBJ-0110","BENCHMARK-010","Placebo",0,"Y","Respiratory, thoracic and mediastinal disorders","Dyspnoea","Grade 1",1,"N","None",45
"SUBJ-0110","BENCHMARK-010","Placebo",0,"Y","Gastrointestinal disorders","Abdominal pain","Grade 2",2,"N","None",48
"SUBJ-0111","BENCHMARK-010","Placebo",0,"Y","Investigations","AST increased","Grade 1",1,"N","None",252
"SUBJ-0111","BENCHMARK-010","Placebo",0,"Y","Gastrointestinal disorders","Vomiting","Grade 1",1,"N","None",389
"SUBJ-0111","BENCHMARK-010","Placebo",0,"Y","Respiratory, thoracic and mediastinal disorders","Dyspnoea","Grade 1",1,"N","Dose interrupted",321
"SUBJ-0111","BENCHMARK-010","Placebo",0,"Y","Investigations","ALT increased","Grade 1",1,"N","None",222
"SUBJ-0113","BENCHMARK-010","Placebo",0,"Y","Respiratory, thoracic and mediastinal disorders","Cough","Grade 2",2,"N","Dose interrupted",87
"SUBJ-0113","BENCHMARK-010","Placebo",0,"Y","Blood and lymphatic system disorders","Neutropenia","Grade 1",1,"N","None",8
"SUBJ-0113","BENCHMARK-010","Placebo",0,"Y","Skin and subcutaneous tissue disorders","Rash","Grade 1",1,"N","None",88
"SUBJ-0114","BENCHMARK-010","Placebo",0,"Y","Investigations","Blood creatinine increased","Grade 1",1,"N","Dose interrupted",24
"SUBJ-0114","BENCHMARK-010","Placebo",0,"Y","General disorders","Pyrexia","Grade 1",1,"N","None",369
"SUBJ-0114","BENCHMARK-010","Placebo",0,"Y","General disorders","Oedema peripheral","Grade 3",3,"Y","None",231
"SUBJ-0116","BENCHMARK-010","Placebo",0,"Y","General disorders","Fatigue","Grade 1",1,"N","Dose interrupted",107
"SUBJ-0116","BENCHMARK-010","Placebo",0,"Y","General disorders","Fatigue","Grade 3",3,"N","Dose reduced",208
"SUBJ-0116","BENCHMARK-010","Placebo",0,"Y","Blood and lymphatic system disorders","Neutropenia","Grade 4",4,"Y","Drug withdrawn",17
"SUBJ-0116","BENCHMARK-010","Placebo",0,"Y","Blood and lymphatic system disorders","Neutropenia","Grade 4",4,"Y","Drug withdrawn",242
"SUBJ-0117","BENCHMARK-010","Placebo",0,"Y","General disorders","Oedema peripheral","Grade 1",1,"N","None",102
"SUBJ-0118","BENCHMARK-010","Placebo",0,"Y","Investigations","Blood creatinine increased","Grade 3",3,"N","None",252
"SUBJ-0118","BENCHMARK-010","Placebo",0,"Y","Skin and subcutaneous tissue disorders","Rash","Grade 3",3,"Y","Dose reduced",96
"SUBJ-0119","BENCHMARK-010","Placebo",0,"Y","Nervous system disorders","Peripheral sensory neuropathy","Grade 1",1,"N","None",335
"SUBJ-0119","BENCHMARK-010","Placebo",0,"Y","Blood and lymphatic system disorders","Anaemia","Grade 5",5,"Y","Drug withdrawn",221
"SUBJ-0120","BENCHMARK-010","Placebo",0,"Y","Blood and lymphatic system disorders","Thrombocytopenia","Grade 2",2,"N","None",187
"SUBJ-0120","BENCHMARK-010","Placebo",0,"Y","Investigations","ALT increased","Grade 3",3,"Y","None",178
"SUBJ-0120","BENCHMARK-010","Placebo",0,"Y","Respiratory, thoracic and mediastinal disorders","Dyspnoea","Grade 1",1,"N","None",217
"SUBJ-0121","BENCHMARK-010","Placebo",0,"Y","Gastrointestinal disorders","Diarrhoea","Grade 1",1,"N","Dose interrupted",63
"SUBJ-0121","BENCHMARK-010","Placebo",0,"Y","Respiratory, thoracic and mediastinal disorders","Cough","Grade 1",1,"N","None",60
"SUBJ-0121","BENCHMARK-010","Placebo",0,"Y","Respiratory, thoracic and mediastinal disorders","Dyspnoea","Grade 4",4,"Y","Drug withdrawn",25
"SUBJ-0121","BENCHMARK-010","Placebo",0,"Y","Skin and subcutaneous tissue disorders","Alopecia","Grade 1",1,"N","None",28
"SUBJ-0121","BENCHMARK-010","Placebo",0,"Y","Gastrointestinal disorders","Nausea","Grade 3",3,"N","None",249
"SUBJ-0123","BENCHMARK-010","Placebo",0,"Y","Blood and lymphatic system disorders","Thrombocytopenia","Grade 4",4,"Y","Drug withdrawn",76
"SUBJ-0124","BENCHMARK-010","Placebo",0,"Y","Skin and subcutaneous tissue disorders","Pruritus","Grade 1",1,"N","None",343
"SUBJ-0125","BENCHMARK-010","Placebo",0,"Y","General disorders","Fatigue","Grade 1",1,"N","None",59
"SUBJ-0125","BENCHMARK-010","Placebo",0,"Y","Gastrointestinal disorders","Nausea","Grade 2",2,"N","None",24
"SUBJ-0126","BENCHMARK-010","Placebo",0,"Y","Gastrointestinal disorders","Nausea","Grade 1",1,"N","Dose interrupted",24
"SUBJ-0127","BENCHMARK-010","Placebo",0,"Y","Nervous system disorders","Peripheral sensory neuropathy","Grade 1",1,"N","None",29
"SUBJ-0127","BENCHMARK-010","Placebo",0,"Y","Investigations","AST increased","Grade 1",1,"N","None",114
"SUBJ-0127","BENCHMARK-010","Placebo",0,"Y","Respiratory, thoracic and mediastinal disorders","Cough","Grade 1",1,"N","None",168
"SUBJ-0129","BENCHMARK-010","Placebo",0,"Y","Skin and subcutaneous tissue disorders","Rash","Grade 1",1,"N","None",246
"SUBJ-0133","BENCHMARK-010","Placebo",0,"Y","Skin and subcutaneous tissue disorders","Alopecia","Grade 2",2,"N","None",57
"SUBJ-0133","BENCHMARK-010","Placebo",0,"Y","Respiratory, thoracic and mediastinal disorders","Cough","Grade 3",3,"N","None",198
"SUBJ-0134","BENCHMARK-010","Placebo",0,"Y","Skin and subcutaneous tissue disorders","Pruritus","Grade 1",1,"N","None",378
"SUBJ-0134","BENCHMARK-010","Placebo",0,"Y","Skin and subcutaneous tissue disorders","Pruritus","Grade 1",1,"N","None",336
"SUBJ-0135","BENCHMARK-010","Placebo",0,"Y","Metabolism and nutrition disorders","Decreased appetite","Grade 3",3,"N","Dose reduced",27
"SUBJ-0137","BENCHMARK-010","Placebo",0,"Y","Nervous system disorders","Peripheral sensory neuropathy","Grade 1",1,"N","Dose interrupted",11
"SUBJ-0137","BENCHMARK-010","Placebo",0,"Y","General disorders","Oedema peripheral","Grade 1",1,"N","Dose interrupted",285
"SUBJ-0137","BENCHMARK-010","Placebo",0,"Y","Blood and lymphatic system disorders","Neutropenia","Grade 1",1,"N","None",222
"SUBJ-0137","BENCHMARK-010","Placebo",0,"Y","Nervous system disorders","Peripheral sensory neuropathy","Grade 1",1,"N","Dose interrupted",22
"SUBJ-0139","BENCHMARK-010","Placebo",0,"Y","Gastrointestinal disorders","Abdominal pain","Grade 1",1,"N","None",121
"SUBJ-0143","BENCHMARK-010","Placebo",0,"Y","General disorders","Oedema peripheral","Grade 1",1,"N","None",223
"SUBJ-0145","BENCHMARK-010","Placebo",0,"Y","General disorders","Fatigue","Grade 1",1,"N","Dose interrupted",21
"SUBJ-0146","BENCHMARK-010","Placebo",0,"Y","General disorders","Oedema peripheral","Grade 2",2,"N","None",186
"SUBJ-0146","BENCHMARK-010","Placebo",0,"Y","Nervous system disorders","Peripheral sensory neuropathy","Grade 3",3,"N","None",368
"SUBJ-0146","BENCHMARK-010","Placebo",0,"Y","Investigations","AST increased","Grade 1",1,"N","None",55
"SUBJ-0147","BENCHMARK-010","Placebo",0,"Y","Gastrointestinal disorders","Abdominal pain","Grade 3",3,"N","None",56
"SUBJ-0147","BENCHMARK-010","Placebo",0,"Y","Nervous system disorders","Peripheral sensory neuropathy","Grade 2",2,"N","None",76
"SUBJ-0147","BENCHMARK-010","Placebo",0,"Y","Nervous system disorders","Headache","Grade 1",1,"N","None",120
"SUBJ-0151","BENCHMARK-010","Placebo",0,"Y","Skin and subcutaneous tissue disorders","Alopecia","Grade 3",3,"Y","None",531
"SUBJ-0151","BENCHMARK-010","Placebo",0,"Y","Metabolism and nutrition disorders","Hypokalaemia","Grade 2",2,"N","None",28
"SUBJ-0151","BENCHMARK-010","Placebo",0,"Y","Metabolism and nutrition disorders","Decreased appetite","Grade 4",4,"Y","Drug withdrawn",47
"SUBJ-0151","BENCHMARK-010","Placebo",0,"Y","Gastrointestinal disorders","Nausea","Grade 1",1,"N","None",266
"SUBJ-0153","BENCHMARK-010","Placebo",0,"Y","Gastrointestinal disorders","Vomiting","Grade 4",4,"Y","Drug withdrawn",251
"SUBJ-0153","BENCHMARK-010","Placebo",0,"Y","Blood and lymphatic system disorders","Neutropenia","Grade 2",2,"N","None",365
"SUBJ-0154","BENCHMARK-010","Placebo",0,"Y","Respiratory, thoracic and mediastinal disorders","Cough","Grade 1",1,"N","None",193
"SUBJ-0154","BENCHMARK-010","Placebo",0,"Y","Blood and lymphatic system disorders","Anaemia","Grade 5",5,"Y","Drug withdrawn",185
"SUBJ-0156","BENCHMARK-010","Placebo",0,"Y","General disorders","Pyrexia","Grade 3",3,"Y","None",136
"SUBJ-0157","BENCHMARK-010","Placebo",0,"Y","Blood and lymphatic system disorders","Neutropenia","Grade 1",1,"N","None",205
"SUBJ-0157","BENCHMARK-010","Placebo",0,"Y","Skin and subcutaneous tissue disorders","Rash","Grade 1",1,"N","None",141
"SUBJ-0158","BENCHMARK-010","Placebo",0,"Y","Gastrointestinal disorders","Diarrhoea","Grade 2",2,"N","None",2
"SUBJ-0159","BENCHMARK-010","Placebo",0,"Y","Investigations","AST increased","Grade 1",1,"N","None",80
"SUBJ-0159","BENCHMARK-010","Placebo",0,"Y","Metabolism and nutrition disorders","Hypokalaemia","Grade 4",4,"Y","Drug withdrawn",130
"SUBJ-0159","BENCHMARK-010","Placebo",0,"Y","General disorders","Fatigue","Grade 2",2,"N","None",109
"SUBJ-0159","BENCHMARK-010","Placebo",0,"Y","Nervous system disorders","Dizziness","Grade 1",1,"N","None",53
"SUBJ-0159","BENCHMARK-010","Placebo",0,"Y","Skin and subcutaneous tissue disorders","Alopecia","Grade 2",2,"N","None",165
"SUBJ-0160","BENCHMARK-010","Placebo",0,"Y","Respiratory, thoracic and mediastinal disorders","Dyspnoea","Grade 3",3,"N","None",67
"SUBJ-0160","BENCHMARK-010","Placebo",0,"Y","Blood and lymphatic system disorders","Neutropenia","Grade 2",2,"N","None",284
"SUBJ-0160","BENCHMARK-010","Placebo",0,"Y","Respiratory, thoracic and mediastinal disorders","Dyspnoea","Grade 3",3,"N","None",406
"SUBJ-0161","BENCHMARK-010","Placebo",0,"Y","General disorders","Pyrexia","Grade 2",2,"N","None",26
"SUBJ-0162","BENCHMARK-010","Placebo",0,"Y","Investigations","ALT increased","Grade 2",2,"N","None",176
"SUBJ-0162","BENCHMARK-010","Placebo",0,"Y","Blood and lymphatic system disorders","Anaemia","Grade 1",1,"N","Dose interrupted",439
"SUBJ-0162","BENCHMARK-010","Placebo",0,"Y","Respiratory, thoracic and mediastinal disorders","Cough","Grade 4",4,"Y","Drug withdrawn",255
"SUBJ-0163","BENCHMARK-010","Placebo",0,"Y","Metabolism and nutrition disorders","Decreased appetite","Grade 1",1,"N","None",128
"SUBJ-0163","BENCHMARK-010","Placebo",0,"Y","Skin and subcutaneous tissue disorders","Alopecia","Grade 3",3,"N","Dose reduced",364
"SUBJ-0163","BENCHMARK-010","Placebo",0,"Y","Metabolism and nutrition disorders","Decreased appetite","Grade 1",1,"N","None",182
"SUBJ-0164","BENCHMARK-010","Placebo",0,"Y","Skin and subcutaneous tissue disorders","Rash","Grade 1",1,"N","None",494
"SUBJ-0165","BENCHMARK-010","Placebo",0,"Y","Blood and lymphatic system disorders","Neutropenia","Grade 4",4,"Y","Drug withdrawn",86
"SUBJ-0165","BENCHMARK-010","Placebo",0,"Y","Skin and subcutaneous tissue disorders","Rash","Grade 2",2,"N","None",134
"SUBJ-0165","BENCHMARK-010","Placebo",0,"Y","Metabolism and nutrition disorders","Decreased appetite","Grade 1",1,"N","Dose interrupted",36
"SUBJ-0166","BENCHMARK-010","Placebo",0,"Y","Nervous system disorders","Headache","Grade 1",1,"N","None",343
"SUBJ-0166","BENCHMARK-010","Placebo",0,"Y","Investigations","ALT increased","Grade 1",1,"N","None",81
"SUBJ-0166","BENCHMARK-010","Placebo",0,"Y","Investigations","ALT increased","Grade 2",2,"N","None",245
"SUBJ-0166","BENCHMARK-010","Placebo",0,"Y","Nervous system disorders","Dizziness","Grade 3",3,"N","Dose reduced",74
"SUBJ-0166","BENCHMARK-010","Placebo",0,"Y","Skin and subcutaneous tissue disorders","Alopecia","Grade 3",3,"N","None",143
"SUBJ-0167","BENCHMARK-010","Placebo",0,"Y","Metabolism and nutrition disorders","Hypokalaemia","Grade 1",1,"N","None",131
"SUBJ-0168","BENCHMARK-010","Placebo",0,"Y","Metabolism and nutrition disorders","Hypokalaemia","Grade 1",1,"N","Dose interrupted",208
"SUBJ-0169","BENCHMARK-010","Placebo",0,"Y","Nervous system disorders","Peripheral sensory neuropathy","Grade 2",2,"N","None",71
"SUBJ-0169","BENCHMARK-010","Placebo",0,"Y","General disorders","Pyrexia","Grade 1",1,"N","None",315
"SUBJ-0169","BENCHMARK-010","Placebo",0,"Y","Investigations","AST increased","Grade 3",3,"N","None",155
"SUBJ-0169","BENCHMARK-010","Placebo",0,"Y","Metabolism and nutrition disorders","Decreased appetite","Grade 1",1,"N","None",13
"SUBJ-0170","BENCHMARK-010","Placebo",0,"Y","Blood and lymphatic system disorders","Anaemia","Grade 1",1,"N","None",200
"SUBJ-0174","BENCHMARK-010","Placebo",0,"Y","Respiratory, thoracic and mediastinal disorders","Cough","Grade 3",3,"N","None",26
"SUBJ-0174","BENCHMARK-010","Placebo",0,"Y","Skin and subcutaneous tissue disorders","Alopecia","Grade 1",1,"N","None",4
"SUBJ-0174","BENCHMARK-010","Placebo",0,"Y","Investigations","ALT increased","Grade 1",1,"N","None",89
"SUBJ-0175","BENCHMARK-010","Placebo",0,"Y","Blood and lymphatic system disorders","Thrombocytopenia","Grade 1",1,"N","None",423
"SUBJ-0175","BENCHMARK-010","Placebo",0,"Y","Metabolism and nutrition disorders","Decreased appetite","Grade 1",1,"N","None",362
"SUBJ-0176","BENCHMARK-010","Placebo",0,"Y","General disorders","Fatigue","Grade 3",3,"N","None",252
"SUBJ-0176","BENCHMARK-010","Placebo",0,"Y","General disorders","Oedema peripheral","Grade 2",2,"N","None",451
"SUBJ-0176","BENCHMARK-010","Placebo",0,"Y","Metabolism and nutrition disorders","Hypokalaemia","Grade 1",1,"N","None",204
"SUBJ-0177","BENCHMARK-010","Placebo",0,"Y","Skin and subcutaneous tissue disorders","Rash","Grade 2",2,"N","None",177
"SUBJ-0178","BENCHMARK-010","Placebo",0,"Y","Blood and lymphatic system disorders","Neutropenia","Grade 1",1,"N","None",313
"SUBJ-0178","BENCHMARK-010","Placebo",0,"Y","Blood and lymphatic system disorders","Anaemia","Grade 2",2,"N","None",340
"SUBJ-0180","BENCHMARK-010","Placebo",0,"Y","Gastrointestinal disorders","Diarrhoea","Grade 2",2,"N","None",26
"SUBJ-0180","BENCHMARK-010","Placebo",0,"Y","Nervous system disorders","Peripheral sensory neuropathy","Grade 3",3,"Y","None",74
"SUBJ-0180","BENCHMARK-010","Placebo",0,"Y","Investigations","AST increased","Grade 1",1,"N","None",349
"SUBJ-0181","BENCHMARK-010","Placebo",0,"Y","Metabolism and nutrition disorders","Decreased appetite","Grade 1",1,"N","None",74
"SUBJ-0181","BENCHMARK-010","Placebo",0,"Y","Blood and lymphatic system disorders","Thrombocytopenia","Grade 1",1,"N","None",138
"SUBJ-0181","BENCHMARK-010","Placebo",0,"Y","Metabolism and nutrition disorders","Hypokalaemia","Grade 2",2,"N","Dose interrupted",26
"SUBJ-0181","BENCHMARK-010","Placebo",0,"Y","Skin and subcutaneous tissue disorders","Alopecia","Grade 2",2,"N","Dose interrupted",137
"SUBJ-0182","BENCHMARK-010","Placebo",0,"Y","Gastrointestinal disorders","Vomiting","Grade 1",1,"N","Dose interrupted",60
"SUBJ-0182","BENCHMARK-010","Placebo",0,"Y","Metabolism and nutrition disorders","Decreased appetite","Grade 3",3,"Y","None",64
"SUBJ-0182","BENCHMARK-010","Placebo",0,"Y","General disorders","Oedema peripheral","Grade 2",2,"N","None",90
"SUBJ-0183","BENCHMARK-010","Placebo",0,"Y","Gastrointestinal disorders","Constipation","Grade 1",1,"N","None",60
"SUBJ-0183","BENCHMARK-010","Placebo",0,"Y","Skin and subcutaneous tissue disorders","Pruritus","Grade 1",1,"N","Dose interrupted",203
"SUBJ-0183","BENCHMARK-010","Placebo",0,"Y","Metabolism and nutrition disorders","Hypokalaemia","Grade 1",1,"N","Dose interrupted",36
"SUBJ-0185","BENCHMARK-010","Placebo",0,"Y","Investigations","AST increased","Grade 3",3,"N","None",5
"SUBJ-0185","BENCHMARK-010","Placebo",0,"Y","Investigations","Blood creatinine increased","Grade 3",3,"Y","None",177
"SUBJ-0185","BENCHMARK-010","Placebo",0,"Y","Metabolism and nutrition disorders","Decreased appetite","Grade 1",1,"N","None",103
"SUBJ-0186","BENCHMARK-010","Placebo",0,"Y","Nervous system disorders","Headache","Grade 2",2,"N","None",141
"SUBJ-0186","BENCHMARK-010","Placebo",0,"Y","Skin and subcutaneous tissue disorders","Alopecia","Grade 2",2,"N","None",96
"SUBJ-0187","BENCHMARK-010","Placebo",0,"Y","Metabolism and nutrition disorders","Hypokalaemia","Grade 1",1,"N","None",169
"SUBJ-0188","BENCHMARK-010","Placebo",0,"Y","Nervous system disorders","Headache","Grade 2",2,"N","None",57
"SUBJ-0192","BENCHMARK-010","Placebo",0,"Y","Skin and subcutaneous tissue disorders","Rash","Grade 1",1,"N","None",263
"SUBJ-0192","BENCHMARK-010","Placebo",0,"Y","Metabolism and nutrition disorders","Hypokalaemia","Grade 1",1,"N","Dose interrupted",257
"SUBJ-0193","BENCHMARK-010","Placebo",0,"Y","Metabolism and nutrition disorders","Hypokalaemia","Grade 2",2,"N","None",273
"SUBJ-0193","BENCHMARK-010","Placebo",0,"Y","Metabolism and nutrition disorders","Decreased appetite","Grade 4",4,"Y","Drug withdrawn",285
"SUBJ-0193","BENCHMARK-010","Placebo",0,"Y","Investigations","Blood creatinine increased","Grade 2",2,"N","None",289
"SUBJ-0194","BENCHMARK-010","Placebo",0,"Y","Gastrointestinal disorders","Vomiting","Grade 3",3,"N","Dose reduced",154
"SUBJ-0194","BENCHMARK-010","Placebo",0,"Y","General disorders","Pyrexia","Grade 3",3,"N","None",179
"SUBJ-0197","BENCHMARK-010","Placebo",0,"Y","Investigations","Blood creatinine increased","Grade 3",3,"N","None",22
"SUBJ-0197","BENCHMARK-010","Placebo",0,"Y","Investigations","AST increased","Grade 2",2,"N","Dose interrupted",252
"SUBJ-0197","BENCHMARK-010","Placebo",0,"Y","Blood and lymphatic system disorders","Anaemia","Grade 2",2,"N","None",164
"SUBJ-0198","BENCHMARK-010","Placebo",0,"Y","Respiratory, thoracic and mediastinal disorders","Cough","Grade 2",2,"N","Dose interrupted",280
"SUBJ-0199","BENCHMARK-010","Placebo",0,"Y","Metabolism and nutrition disorders","Hypokalaemia","Grade 1",1,"N","None",372
"SUBJ-0199","BENCHMARK-010","Placebo",0,"Y","Blood and lymphatic system disorders","Anaemia","Grade 1",1,"N","None",66
"SUBJ-0200","BENCHMARK-010","Placebo",0,"Y","Nervous system disorders","Dizziness","Grade 1",1,"N","None",31
"SUBJ-0201","BENCHMARK-010","Active",1,"Y","Respiratory, thoracic and mediastinal disorders","Dyspnoea","Grade 4",4,"Y","Drug withdrawn",130
"SUBJ-0201","BENCHMARK-010","Active",1,"Y","Metabolism and nutrition disorders","Hypokalaemia","Grade 2",2,"N","None",303
"SUBJ-0203","BENCHMARK-010","Active",1,"Y","Respiratory, thoracic and mediastinal disorders","Dyspnoea","Grade 2",2,"N","None",443
"SUBJ-0203","BENCHMARK-010","Active",1,"Y","General disorders","Fatigue","Grade 1",1,"N","None",29
"SUBJ-0203","BENCHMARK-010","Active",1,"Y","General disorders","Oedema peripheral","Grade 3",3,"N","None",435
"SUBJ-0203","BENCHMARK-010","Active",1,"Y","Investigations","ALT increased","Grade 5",5,"Y","Drug withdrawn",517
"SUBJ-0203","BENCHMARK-010","Active",1,"Y","Respiratory, thoracic and mediastinal disorders","Cough","Grade 1",1,"N","None",387
"SUBJ-0203","BENCHMARK-010","Active",1,"Y","General disorders","Oedema peripheral","Grade 1",1,"N","None",234
"SUBJ-0204","BENCHMARK-010","Active",1,"Y","Skin and subcutaneous tissue disorders","Alopecia","Grade 1",1,"N","None",300
"SUBJ-0204","BENCHMARK-010","Active",1,"Y","Skin and subcutaneous tissue disorders","Rash","Grade 1",1,"N","None",285
"SUBJ-0204","BENCHMARK-010","Active",1,"Y","Investigations","AST increased","Grade 3",3,"N","None",423
"SUBJ-0205","BENCHMARK-010","Active",1,"Y","General disorders","Fatigue","Grade 2",2,"N","None",154
"SUBJ-0205","BENCHMARK-010","Active",1,"Y","Blood and lymphatic system disorders","Thrombocytopenia","Grade 4",4,"Y","Drug withdrawn",74
"SUBJ-0205","BENCHMARK-010","Active",1,"Y","Nervous system disorders","Dizziness","Grade 1",1,"N","None",32
"SUBJ-0205","BENCHMARK-010","Active",1,"Y","Gastrointestinal disorders","Nausea","Grade 2",2,"N","None",182
"SUBJ-0205","BENCHMARK-010","Active",1,"Y","Nervous system disorders","Dizziness","Grade 1",1,"N","None",128
"SUBJ-0206","BENCHMARK-010","Active",1,"Y","Investigations","AST increased","Grade 4",4,"Y","Drug withdrawn",409
"SUBJ-0206","BENCHMARK-010","Active",1,"Y","Respiratory, thoracic and mediastinal disorders","Dyspnoea","Grade 1",1,"N","Dose interrupted",464
"SUBJ-0206","BENCHMARK-010","Active",1,"Y","Blood and lymphatic system disorders","Anaemia","Grade 4",4,"Y","Drug withdrawn",369
"SUBJ-0206","BENCHMARK-010","Active",1,"Y","Metabolism and nutrition disorders","Hypokalaemia","Grade 2",2,"N","Dose interrupted",384
"SUBJ-0206","BENCHMARK-010","Active",1,"Y","Skin and subcutaneous tissue disorders","Pruritus","Grade 1",1,"N","None",132
"SUBJ-0207","BENCHMARK-010","Active",1,"Y","Nervous system disorders","Headache","Grade 2",2,"N","None",298
"SUBJ-0207","BENCHMARK-010","Active",1,"Y","Skin and subcutaneous tissue disorders","Pruritus","Grade 4",4,"Y","Drug withdrawn",21
"SUBJ-0207","BENCHMARK-010","Active",1,"Y","Gastrointestinal disorders","Diarrhoea","Grade 2",2,"N","None",345
"SUBJ-0207","BENCHMARK-010","Active",1,"Y","Nervous system disorders","Peripheral sensory neuropathy","Grade 1",1,"N","None",109
"SUBJ-0208","BENCHMARK-010","Active",1,"Y","Skin and subcutaneous tissue disorders","Rash","Grade 1",1,"N","Dose interrupted",97
"SUBJ-0208","BENCHMARK-010","Active",1,"Y","General disorders","Fatigue","Grade 2",2,"N","None",16
"SUBJ-0208","BENCHMARK-010","Active",1,"Y","Respiratory, thoracic and mediastinal disorders","Dyspnoea","Grade 1",1,"N","None",147
"SUBJ-0209","BENCHMARK-010","Active",1,"Y","Nervous system disorders","Dizziness","Grade 2",2,"N","None",167
"SUBJ-0209","BENCHMARK-010","Active",1,"Y","Metabolism and nutrition disorders","Hypokalaemia","Grade 1",1,"N","None",191
"SUBJ-0210","BENCHMARK-010","Active",1,"Y","Investigations","Blood creatinine increased","Grade 4",4,"Y","Drug withdrawn",174
"SUBJ-0210","BENCHMARK-010","Active",1,"Y","Nervous system disorders","Peripheral sensory neuropathy","Grade 3",3,"N","None",206
"SUBJ-0210","BENCHMARK-010","Active",1,"Y","Investigations","AST increased","Grade 3",3,"N","None",211
"SUBJ-0211","BENCHMARK-010","Active",1,"Y","Respiratory, thoracic and mediastinal disorders","Cough","Grade 3",3,"Y","Dose reduced",114
"SUBJ-0211","BENCHMARK-010","Active",1,"Y","Nervous system disorders","Dizziness","Grade 1",1,"N","None",48
"SUBJ-0211","BENCHMARK-010","Active",1,"Y","Gastrointestinal disorders","Diarrhoea","Grade 1",1,"N","None",85
"SUBJ-0211","BENCHMARK-010","Active",1,"Y","Blood and lymphatic system disorders","Thrombocytopenia","Grade 2",2,"N","Dose interrupted",117
"SUBJ-0212","BENCHMARK-010","Active",1,"Y","Blood and lymphatic system disorders","Neutropenia","Grade 2",2,"N","Dose interrupted",179
"SUBJ-0212","BENCHMARK-010","Active",1,"Y","Respiratory, thoracic and mediastinal disorders","Cough","Grade 1",1,"N","None",340
"SUBJ-0212","BENCHMARK-010","Active",1,"Y","General disorders","Oedema peripheral","Grade 3",3,"N","Dose reduced",55
"SUBJ-0213","BENCHMARK-010","Active",1,"Y","Investigations","ALT increased","Grade 1",1,"N","None",297
"SUBJ-0213","BENCHMARK-010","Active",1,"Y","Skin and subcutaneous tissue disorders","Rash","Grade 2",2,"N","None",293
"SUBJ-0213","BENCHMARK-010","Active",1,"Y","Investigations","ALT increased","Grade 1",1,"N","None",47
"SUBJ-0215","BENCHMARK-010","Active",1,"Y","Respiratory, thoracic and mediastinal disorders","Dyspnoea","Grade 2",2,"N","None",476
"SUBJ-0215","BENCHMARK-010","Active",1,"Y","Skin and subcutaneous tissue disorders","Alopecia","Grade 3",3,"Y","Dose reduced",510
"SUBJ-0215","BENCHMARK-010","Active",1,"Y","Metabolism and nutrition disorders","Hypokalaemia","Grade 3",3,"N","None",72
"SUBJ-0216","BENCHMARK-010","Active",1,"Y","Blood and lymphatic system disorders","Neutropenia","Grade 1",1,"N","None",154
"SUBJ-0217","BENCHMARK-010","Active",1,"Y","Gastrointestinal disorders","Abdominal pain","Grade 1",1,"N","None",304
"SUBJ-0217","BENCHMARK-010","Active",1,"Y","Nervous system disorders","Peripheral sensory neuropathy","Grade 1",1,"N","None",81
"SUBJ-0220","BENCHMARK-010","Active",1,"Y","Gastrointestinal disorders","Abdominal pain","Grade 3",3,"Y","None",221
"SUBJ-0221","BENCHMARK-010","Active",1,"Y","Metabolism and nutrition disorders","Decreased appetite","Grade 3",3,"N","None",166
"SUBJ-0222","BENCHMARK-010","Active",1,"Y","Blood and lymphatic system disorders","Anaemia","Grade 2",2,"N","Dose interrupted",106
"SUBJ-0224","BENCHMARK-010","Active",1,"Y","Blood and lymphatic system disorders","Thrombocytopenia","Grade 1",1,"N","None",141
"SUBJ-0224","BENCHMARK-010","Active",1,"Y","Metabolism and nutrition disorders","Hypokalaemia","Grade 1",1,"N","None",55
"SUBJ-0225","BENCHMARK-010","Active",1,"Y","General disorders","Fatigue","Grade 3",3,"N","Dose reduced",355
"SUBJ-0225","BENCHMARK-010","Active",1,"Y","Investigations","ALT increased","Grade 1",1,"N","None",329
"SUBJ-0225","BENCHMARK-010","Active",1,"Y","Respiratory, thoracic and mediastinal disorders","Cough","Grade 1",1,"N","None",16
"SUBJ-0226","BENCHMARK-010","Active",1,"Y","General disorders","Fatigue","Grade 3",3,"Y","Dose reduced",227
"SUBJ-0226","BENCHMARK-010","Active",1,"Y","Gastrointestinal disorders","Nausea","Grade 2",2,"N","None",499
"SUBJ-0226","BENCHMARK-010","Active",1,"Y","Metabolism and nutrition disorders","Hypokalaemia","Grade 1",1,"N","None",67
"SUBJ-0226","BENCHMARK-010","Active",1,"Y","Respiratory, thoracic and mediastinal disorders","Cough","Grade 1",1,"N","None",85
"SUBJ-0226","BENCHMARK-010","Active",1,"Y","Investigations","Blood creatinine increased","Grade 1",1,"N","Dose interrupted",100
"SUBJ-0227","BENCHMARK-010","Active",1,"Y","Skin and subcutaneous tissue disorders","Rash","Grade 1",1,"N","None",233
"SUBJ-0227","BENCHMARK-010","Active",1,"Y","Respiratory, thoracic and mediastinal disorders","Cough","Grade 2",2,"N","None",23
"SUBJ-0228","BENCHMARK-010","Active",1,"Y","Skin and subcutaneous tissue disorders","Rash","Grade 1",1,"N","None",237
"SUBJ-0228","BENCHMARK-010","Active",1,"Y","General disorders","Fatigue","Grade 1",1,"N","Dose interrupted",146
"SUBJ-0229","BENCHMARK-010","Active",1,"Y","Investigations","Blood creatinine increased","Grade 3",3,"N","None",57
"SUBJ-0229","BENCHMARK-010","Active",1,"Y","Nervous system disorders","Dizziness","Grade 4",4,"Y","Drug withdrawn",75
"SUBJ-0229","BENCHMARK-010","Active",1,"Y","Skin and subcutaneous tissue disorders","Rash","Grade 1",1,"N","Dose interrupted",211
"SUBJ-0229","BENCHMARK-010","Active",1,"Y","Skin and subcutaneous tissue disorders","Pruritus","Grade 2",2,"N","None",140
"SUBJ-0229","BENCHMARK-010","Active",1,"Y","Metabolism and nutrition disorders","Decreased appetite","Grade 3",3,"N","None",120
"SUBJ-0230","BENCHMARK-010","Active",1,"Y","Metabolism and nutrition disorders","Decreased appetite","Grade 1",1,"N","None",88
"SUBJ-0230","BENCHMARK-010","Active",1,"Y","General disorders","Fatigue","Grade 2",2,"N","None",292
"SUBJ-0230","BENCHMARK-010","Active",1,"Y","Investigations","Blood creatinine increased","Grade 1",1,"N","None",81
"SUBJ-0230","BENCHMARK-010","Active",1,"Y","Nervous system disorders","Peripheral sensory neuropathy","Grade 2",2,"N","None",234
"SUBJ-0230","BENCHMARK-010","Active",1,"Y","Metabolism and nutrition disorders","Hypokalaemia","Grade 3",3,"N","Dose reduced",255
"SUBJ-0230","BENCHMARK-010","Active",1,"Y","General disorders","Oedema peripheral","Grade 1",1,"N","None",295
"SUBJ-0231","BENCHMARK-010","Active",1,"Y","Respiratory, thoracic and mediastinal disorders","Cough","Grade 1",1,"N","None",262
"SUBJ-0231","BENCHMARK-010","Active",1,"Y","Skin and subcutaneous tissue disorders","Pruritus","Grade 2",2,"N","Dose interrupted",403
"SUBJ-0231","BENCHMARK-010","Active",1,"Y","Gastrointestinal disorders","Vomiting","Grade 2",2,"N","None",208
"SUBJ-0232","BENCHMARK-010","Active",1,"Y","Nervous system disorders","Dizziness","Grade 1",1,"N","None",185
"SUBJ-0232","BENCHMARK-010","Active",1,"Y","Blood and lymphatic system disorders","Neutropenia","Grade 1",1,"N","None",53
"SUBJ-0232","BENCHMARK-010","Active",1,"Y","General disorders","Pyrexia","Grade 2",2,"N","Dose interrupted",445
"SUBJ-0233","BENCHMARK-010","Active",1,"Y","Nervous system disorders","Peripheral sensory neuropathy","Grade 1",1,"N","Dose interrupted",245
"SUBJ-0233","BENCHMARK-010","Active",1,"Y","Gastrointestinal disorders","Constipation","Grade 1",1,"N","None",34
"SUBJ-0233","BENCHMARK-010","Active",1,"Y","Respiratory, thoracic and mediastinal disorders","Cough","Grade 1",1,"N","None",306
"SUBJ-0234","BENCHMARK-010","Active",1,"Y","Investigations","AST increased","Grade 2",2,"N","None",140
"SUBJ-0234","BENCHMARK-010","Active",1,"Y","Nervous system disorders","Dizziness","Grade 1",1,"N","None",85
"SUBJ-0235","BENCHMARK-010","Active",1,"Y","Blood and lymphatic system disorders","Anaemia","Grade 2",2,"N","None",339
"SUBJ-0236","BENCHMARK-010","Active",1,"Y","General disorders","Pyrexia","Grade 1",1,"N","None",4
"SUBJ-0236","BENCHMARK-010","Active",1,"Y","General disorders","Pyrexia","Grade 1",1,"N","Dose interrupted",32
"SUBJ-0236","BENCHMARK-010","Active",1,"Y","Nervous system disorders","Headache","Grade 1",1,"N","None",63
"SUBJ-0236","BENCHMARK-010","Active",1,"Y","Investigations","Blood creatinine increased","Grade 2",2,"N","Dose interrupted",110
"SUBJ-0237","BENCHMARK-010","Active",1,"Y","Skin and subcutaneous tissue disorders","Rash","Grade 3",3,"N","None",231
"SUBJ-0237","BENCHMARK-010","Active",1,"Y","Investigations","Blood creatinine increased","Grade 1",1,"N","None",173
"SUBJ-0237","BENCHMARK-010","Active",1,"Y","Gastrointestinal disorders","Constipation","Grade 2",2,"N","None",230
"SUBJ-0237","BENCHMARK-010","Active",1,"Y","Blood and lymphatic system disorders","Neutropenia","Grade 1",1,"N","None",52
"SUBJ-0238","BENCHMARK-010","Active",1,"Y","Investigations","ALT increased","Grade 1",1,"N","None",106
"SUBJ-0238","BENCHMARK-010","Active",1,"Y","Nervous system disorders","Headache","Grade 1",1,"N","None",52
"SUBJ-0238","BENCHMARK-010","Active",1,"Y","Gastrointestinal disorders","Vomiting","Grade 1",1,"N","Dose interrupted",41
"SUBJ-0239","BENCHMARK-010","Active",1,"Y","Investigations","Blood creatinine increased","Grade 4",4,"Y","Drug withdrawn",51
"SUBJ-0239","BENCHMARK-010","Active",1,"Y","Blood and lymphatic system disorders","Anaemia","Grade 5",5,"Y","Drug withdrawn",340
"SUBJ-0240","BENCHMARK-010","Active",1,"Y","Investigations","ALT increased","Grade 2",2,"N","None",285
"SUBJ-0240","BENCHMARK-010","Active",1,"Y","Gastrointestinal disorders","Vomiting","Grade 1",1,"N","None",14
"SUBJ-0241","BENCHMARK-010","Active",1,"Y","Gastrointestinal disorders","Abdominal pain","Grade 1",1,"N","None",200
"SUBJ-0241","BENCHMARK-010","Active",1,"Y","General disorders","Oedema peripheral","Grade 4",4,"Y","Drug withdrawn",233
"SUBJ-0241","BENCHMARK-010","Active",1,"Y","Blood and lymphatic system disorders","Neutropenia","Grade 1",1,"N","None",228
"SUBJ-0241","BENCHMARK-010","Active",1,"Y","Skin and subcutaneous tissue disorders","Alopecia","Grade 2",2,"N","None",274
"SUBJ-0242","BENCHMARK-010","Active",1,"Y","Gastrointestinal disorders","Constipation","Grade 1",1,"N","None",50
"SUBJ-0243","BENCHMARK-010","Active",1,"Y","Blood and lymphatic system disorders","Neutropenia","Grade 1",1,"N","None",130
"SUBJ-0243","BENCHMARK-010","Active",1,"Y","Respiratory, thoracic and mediastinal disorders","Dyspnoea","Grade 3",3,"N","Dose reduced",11
"SUBJ-0244","BENCHMARK-010","Active",1,"Y","Gastrointestinal disorders","Diarrhoea","Grade 1",1,"N","None",137
"SUBJ-0244","BENCHMARK-010","Active",1,"Y","Gastrointestinal disorders","Diarrhoea","Grade 1",1,"N","None",253
"SUBJ-0245","BENCHMARK-010","Active",1,"Y","Respiratory, thoracic and mediastinal disorders","Cough","Grade 2",2,"N","None",307
"SUBJ-0246","BENCHMARK-010","Active",1,"Y","Skin and subcutaneous tissue disorders","Rash","Grade 1",1,"N","None",27
"SUBJ-0246","BENCHMARK-010","Active",1,"Y","General disorders","Pyrexia","Grade 2",2,"N","Dose interrupted",29
"SUBJ-0246","BENCHMARK-010","Active",1,"Y","Investigations","Blood creatinine increased","Grade 1",1,"N","None",192
"SUBJ-0246","BENCHMARK-010","Active",1,"Y","General disorders","Oedema peripheral","Grade 5",5,"Y","Drug withdrawn",365
"SUBJ-0247","BENCHMARK-010","Active",1,"Y","Respiratory, thoracic and mediastinal disorders","Dyspnoea","Grade 2",2,"N","None",306
"SUBJ-0248","BENCHMARK-010","Active",1,"Y","Investigations","AST increased","Grade 1",1,"N","Dose interrupted",323
"SUBJ-0248","BENCHMARK-010","Active",1,"Y","General disorders","Oedema peripheral","Grade 1",1,"N","None",292
"SUBJ-0248","BENCHMARK-010","Active",1,"Y","Respiratory, thoracic and mediastinal disorders","Dyspnoea","Grade 1",1,"N","None",247
"SUBJ-0249","BENCHMARK-010","Active",1,"Y","Nervous system disorders","Headache","Grade 1",1,"N","Dose interrupted",118
"SUBJ-0249","BENCHMARK-010","Active",1,"Y","Nervous system disorders","Dizziness","Grade 1",1,"N","None",184
"SUBJ-0249","BENCHMARK-010","Active",1,"Y","Respiratory, thoracic and mediastinal disorders","Cough","Grade 1",1,"N","None",186
"SUBJ-0251","BENCHMARK-010","Active",1,"Y","Skin and subcutaneous tissue disorders","Rash","Grade 1",1,"N","None",351
"SUBJ-0251","BENCHMARK-010","Active",1,"Y","Metabolism and nutrition disorders","Decreased appetite","Grade 1",1,"N","Dose interrupted",6
"SUBJ-0251","BENCHMARK-010","Active",1,"Y","Gastrointestinal disorders","Nausea","Grade 2",2,"N","None",454
"SUBJ-0253","BENCHMARK-010","Active",1,"Y","Respiratory, thoracic and mediastinal disorders","Cough","Grade 3",3,"N","Dose reduced",360
"SUBJ-0253","BENCHMARK-010","Active",1,"Y","General disorders","Fatigue","Grade 1",1,"N","None",457
"SUBJ-0253","BENCHMARK-010","Active",1,"Y","General disorders","Fatigue","Grade 4",4,"Y","Drug withdrawn",111
"SUBJ-0254","BENCHMARK-010","Active",1,"Y","Investigations","Blood creatinine increased","Grade 4",4,"Y","Drug withdrawn",77
"SUBJ-0254","BENCHMARK-010","Active",1,"Y","Respiratory, thoracic and mediastinal disorders","Dyspnoea","Grade 3",3,"Y","None",28
"SUBJ-0254","BENCHMARK-010","Active",1,"Y","Respiratory, thoracic and mediastinal disorders","Dyspnoea","Grade 1",1,"N","None",16
"SUBJ-0255","BENCHMARK-010","Active",1,"Y","Skin and subcutaneous tissue disorders","Pruritus","Grade 1",1,"N","Dose interrupted",47
"SUBJ-0255","BENCHMARK-010","Active",1,"Y","Skin and subcutaneous tissue disorders","Alopecia","Grade 3",3,"N","Dose reduced",18
"SUBJ-0256","BENCHMARK-010","Active",1,"Y","General disorders","Pyrexia","Grade 1",1,"N","None",95
"SUBJ-0258","BENCHMARK-010","Active",1,"Y","Respiratory, thoracic and mediastinal disorders","Dyspnoea","Grade 1",1,"N","None",95
"SUBJ-0258","BENCHMARK-010","Active",1,"Y","Investigations","AST increased","Grade 1",1,"N","None",301
"SUBJ-0258","BENCHMARK-010","Active",1,"Y","Respiratory, thoracic and mediastinal disorders","Cough","Grade 3",3,"N","Dose reduced",349
"SUBJ-0258","BENCHMARK-010","Active",1,"Y","Investigations","Blood creatinine increased","Grade 3",3,"N","None",303
"SUBJ-0259","BENCHMARK-010","Active",1,"Y","Gastrointestinal disorders","Diarrhoea","Grade 2",2,"N","None",19
"SUBJ-0260","BENCHMARK-010","Active",1,"Y","Respiratory, thoracic and mediastinal disorders","Cough","Grade 1",1,"N","None",2
"SUBJ-0260","BENCHMARK-010","Active",1,"Y","Gastrointestinal disorders","Abdominal pain","Grade 1",1,"N","None",30
"SUBJ-0260","BENCHMARK-010","Active",1,"Y","General disorders","Pyrexia","Grade 2",2,"N","None",119
"SUBJ-0260","BENCHMARK-010","Active",1,"Y","Nervous system disorders","Headache","Grade 1",1,"N","None",48
"SUBJ-0260","BENCHMARK-010","Active",1,"Y","Metabolism and nutrition disorders","Decreased appetite","Grade 1",1,"N","None",228
"SUBJ-0261","BENCHMARK-010","Active",1,"Y","Blood and lymphatic system disorders","Neutropenia","Grade 1",1,"N","None",28
"SUBJ-0261","BENCHMARK-010","Active",1,"Y","General disorders","Pyrexia","Grade 2",2,"N","Dose interrupted",14
"SUBJ-0261","BENCHMARK-010","Active",1,"Y","Blood and lymphatic system disorders","Thrombocytopenia","Grade 2",2,"N","None",123
"SUBJ-0261","BENCHMARK-010","Active",1,"Y","Investigations","AST increased","Grade 2",2,"N","None",56
"SUBJ-0262","BENCHMARK-010","Active",1,"Y","Metabolism and nutrition disorders","Decreased appetite","Grade 1",1,"N","None",147
"SUBJ-0262","BENCHMARK-010","Active",1,"Y","Respiratory, thoracic and mediastinal disorders","Cough","Grade 3",3,"Y","None",162
"SUBJ-0262","BENCHMARK-010","Active",1,"Y","Nervous system disorders","Dizziness","Grade 1",1,"N","None",146
"SUBJ-0262","BENCHMARK-010","Active",1,"Y","Nervous system disorders","Dizziness","Grade 1",1,"N","None",244
"SUBJ-0263","BENCHMARK-010","Active",1,"Y","Skin and subcutaneous tissue disorders","Rash","Grade 2",2,"N","None",364
"SUBJ-0263","BENCHMARK-010","Active",1,"Y","Skin and subcutaneous tissue disorders","Rash","Grade 2",2,"N","Dose interrupted",370
"SUBJ-0263","BENCHMARK-010","Active",1,"Y","Skin and subcutaneous tissue disorders","Alopecia","Grade 1",1,"N","None",537
"SUBJ-0263","BENCHMARK-010","Active",1,"Y","General disorders","Fatigue","Grade 1",1,"N","Dose interrupted",262
"SUBJ-0264","BENCHMARK-010","Active",1,"Y","Investigations","ALT increased","Grade 2",2,"N","None",3
"SUBJ-0264","BENCHMARK-010","Active",1,"Y","Investigations","AST increased","Grade 3",3,"Y","Dose reduced",206
"SUBJ-0266","BENCHMARK-010","Active",1,"Y","Skin and subcutaneous tissue disorders","Pruritus","Grade 4",4,"Y","Drug withdrawn",237
"SUBJ-0266","BENCHMARK-010","Active",1,"Y","Gastrointestinal disorders","Nausea","Grade 1",1,"N","None",77
"SUBJ-0267","BENCHMARK-010","Active",1,"Y","Gastrointestinal disorders","Nausea","Grade 1",1,"N","None",208
"SUBJ-0268","BENCHMARK-010","Active",1,"Y","Metabolism and nutrition disorders","Decreased appetite","Grade 2",2,"N","None",132
"SUBJ-0269","BENCHMARK-010","Active",1,"Y","General disorders","Oedema peripheral","Grade 2",2,"N","None",456
"SUBJ-0271","BENCHMARK-010","Active",1,"Y","Nervous system disorders","Dizziness","Grade 1",1,"N","None",191
"SUBJ-0271","BENCHMARK-010","Active",1,"Y","General disorders","Fatigue","Grade 2",2,"N","Dose interrupted",310
"SUBJ-0271","BENCHMARK-010","Active",1,"Y","Blood and lymphatic system disorders","Thrombocytopenia","Grade 2",2,"N","None",409
"SUBJ-0271","BENCHMARK-010","Active",1,"Y","General disorders","Pyrexia","Grade 1",1,"N","Dose interrupted",171
"SUBJ-0273","BENCHMARK-010","Active",1,"Y","Respiratory, thoracic and mediastinal disorders","Dyspnoea","Grade 3",3,"N","None",406
"SUBJ-0273","BENCHMARK-010","Active",1,"Y","Skin and subcutaneous tissue disorders","Alopecia","Grade 1",1,"N","Dose interrupted",267
"SUBJ-0273","BENCHMARK-010","Active",1,"Y","Nervous system disorders","Dizziness","Grade 1",1,"N","None",500
"SUBJ-0274","BENCHMARK-010","Active",1,"Y","Blood and lymphatic system disorders","Neutropenia","Grade 3",3,"Y","Dose reduced",9
"SUBJ-0274","BENCHMARK-010","Active",1,"Y","Gastrointestinal disorders","Nausea","Grade 1",1,"N","None",458
"SUBJ-0274","BENCHMARK-010","Active",1,"Y","General disorders","Oedema peripheral","Grade 3",3,"N","None",430
"SUBJ-0275","BENCHMARK-010","Active",1,"Y","General disorders","Fatigue","Grade 2",2,"N","None",217
"SUBJ-0275","BENCHMARK-010","Active",1,"Y","Nervous system disorders","Dizziness","Grade 2",2,"N","None",150
"SUBJ-0275","BENCHMARK-010","Active",1,"Y","Nervous system disorders","Headache","Grade 2",2,"N","None",552
"SUBJ-0275","BENCHMARK-010","Active",1,"Y","Gastrointestinal disorders","Nausea","Grade 2",2,"N","None",351
"SUBJ-0275","BENCHMARK-010","Active",1,"Y","General disorders","Oedema peripheral","Grade 1",1,"N","None",247
"SUBJ-0276","BENCHMARK-010","Active",1,"Y","Metabolism and nutrition disorders","Hypokalaemia","Grade 1",1,"N","None",120
"SUBJ-0276","BENCHMARK-010","Active",1,"Y","Respiratory, thoracic and mediastinal disorders","Dyspnoea","Grade 1",1,"N","None",214
"SUBJ-0276","BENCHMARK-010","Active",1,"Y","Blood and lymphatic system disorders","Neutropenia","Grade 3",3,"Y","None",254
"SUBJ-0277","BENCHMARK-010","Active",1,"Y","Blood and lymphatic system disorders","Thrombocytopenia","Grade 1",1,"N","None",64
"SUBJ-0277","BENCHMARK-010","Active",1,"Y","Metabolism and nutrition disorders","Decreased appetite","Grade 2",2,"N","Dose interrupted",229
"SUBJ-0277","BENCHMARK-010","Active",1,"Y","General disorders","Fatigue","Grade 3",3,"N","None",148
"SUBJ-0278","BENCHMARK-010","Active",1,"Y","Skin and subcutaneous tissue disorders","Rash","Grade 1",1,"N","None",237
"SUBJ-0278","BENCHMARK-010","Active",1,"Y","General disorders","Pyrexia","Grade 1",1,"N","None",277
"SUBJ-0278","BENCHMARK-010","Active",1,"Y","Gastrointestinal disorders","Diarrhoea","Grade 1",1,"N","None",468
"SUBJ-0278","BENCHMARK-010","Active",1,"Y","Respiratory, thoracic and mediastinal disorders","Cough","Grade 5",5,"Y","Drug withdrawn",123
"SUBJ-0278","BENCHMARK-010","Active",1,"Y","Skin and subcutaneous tissue disorders","Alopecia","Grade 2",2,"N","None",166
"SUBJ-0279","BENCHMARK-010","Active",1,"Y","Nervous system disorders","Peripheral sensory neuropathy","Grade 1",1,"N","None",423
"SUBJ-0280","BENCHMARK-010","Active",1,"Y","Investigations","ALT increased","Grade 1",1,"N","None",71
"SUBJ-0280","BENCHMARK-010","Active",1,"Y","Investigations","AST increased","Grade 2",2,"N","None",79
"SUBJ-0280","BENCHMARK-010","Active",1,"Y","Nervous system disorders","Headache","Grade 1",1,"N","Dose interrupted",42
"SUBJ-0281","BENCHMARK-010","Active",1,"Y","Metabolism and nutrition disorders","Hypokalaemia","Grade 1",1,"N","Dose interrupted",267
"SUBJ-0281","BENCHMARK-010","Active",1,"Y","Blood and lymphatic system disorders","Neutropenia","Grade 1",1,"N","None",159
"SUBJ-0281","BENCHMARK-010","Active",1,"Y","Metabolism and nutrition disorders","Decreased appetite","Grade 3",3,"N","None",200
"SUBJ-0283","BENCHMARK-010","Active",1,"Y","Nervous system disorders","Dizziness","Grade 1",1,"N","None",451
"SUBJ-0283","BENCHMARK-010","Active",1,"Y","General disorders","Fatigue","Grade 1",1,"N","None",351
"SUBJ-0283","BENCHMARK-010","Active",1,"Y","Skin and subcutaneous tissue disorders","Alopecia","Grade 2",2,"N","Dose interrupted",284
"SUBJ-0284","BENCHMARK-010","Active",1,"Y","Blood and lymphatic system disorders","Neutropenia","Grade 1",1,"N","None",417
"SUBJ-0284","BENCHMARK-010","Active",1,"Y","Gastrointestinal disorders","Vomiting","Grade 1",1,"N","None",408
"SUBJ-0284","BENCHMARK-010","Active",1,"Y","Skin and subcutaneous tissue disorders","Alopecia","Grade 2",2,"N","None",99
"SUBJ-0285","BENCHMARK-010","Active",1,"Y","Nervous system disorders","Peripheral sensory neuropathy","Grade 3",3,"Y","None",443
"SUBJ-0285","BENCHMARK-010","Active",1,"Y","Skin and subcutaneous tissue disorders","Rash","Grade 1",1,"N","None",94
"SUBJ-0285","BENCHMARK-010","Active",1,"Y","Skin and subcutaneous tissue disorders","Pruritus","Grade 2",2,"N","None",102
"SUBJ-0286","BENCHMARK-010","Active",1,"Y","Investigations","Blood creatinine increased","Grade 4",4,"Y","Drug withdrawn",99
"SUBJ-0287","BENCHMARK-010","Active",1,"Y","Blood and lymphatic system disorders","Anaemia","Grade 1",1,"N","None",401
"SUBJ-0287","BENCHMARK-010","Active",1,"Y","General disorders","Pyrexia","Grade 2",2,"N","None",235
"SUBJ-0289","BENCHMARK-010","Active",1,"Y","Gastrointestinal disorders","Constipation","Grade 1",1,"N","None",216
"SUBJ-0289","BENCHMARK-010","Active",1,"Y","Respiratory, thoracic and mediastinal disorders","Cough","Grade 1",1,"N","None",36
"SUBJ-0290","BENCHMARK-010","Active",1,"Y","Nervous system disorders","Headache","Grade 1",1,"N","None",122
"SUBJ-0290","BENCHMARK-010","Active",1,"Y","Nervous system disorders","Dizziness","Grade 1",1,"N","None",47
"SUBJ-0291","BENCHMARK-010","Active",1,"Y","Respiratory, thoracic and mediastinal disorders","Dyspnoea","Grade 1",1,"N","Dose interrupted",178
"SUBJ-0291","BENCHMARK-010","Active",1,"Y","Skin and subcutaneous tissue disorders","Alopecia","Grade 1",1,"N","Dose interrupted",53
"SUBJ-0291","BENCHMARK-010","Active",1,"Y","Nervous system disorders","Dizziness","Grade 3",3,"N","Dose reduced",286
"SUBJ-0291","BENCHMARK-010","Active",1,"Y","General disorders","Fatigue","Grade 2",2,"N","Dose interrupted",184
"SUBJ-0291","BENCHMARK-010","Active",1,"Y","Respiratory, thoracic and mediastinal disorders","Cough","Grade 3",3,"Y","None",205
"SUBJ-0292","BENCHMARK-010","Active",1,"Y","Investigations","ALT increased","Grade 1",1,"N","None",421
"SUBJ-0292","BENCHMARK-010","Active",1,"Y","Nervous system disorders","Headache","Grade 2",2,"N","Dose interrupted",62
"SUBJ-0292","BENCHMARK-010","Active",1,"Y","Blood and lymphatic system disorders","Thrombocytopenia","Grade 2",2,"N","None",322
"SUBJ-0293","BENCHMARK-010","Active",1,"Y","Metabolism and nutrition disorders","Hypokalaemia","Grade 3",3,"Y","None",72
"SUBJ-0293","BENCHMARK-010","Active",1,"Y","Investigations","AST increased","Grade 2",2,"N","None",373
"SUBJ-0293","BENCHMARK-010","Active",1,"Y","Metabolism and nutrition disorders","Hypokalaemia","Grade 3",3,"Y","None",308
"SUBJ-0293","BENCHMARK-010","Active",1,"Y","Gastrointestinal disorders","Constipation","Grade 1",1,"N","None",409
"SUBJ-0294","BENCHMARK-010","Active",1,"Y","Metabolism and nutrition disorders","Decreased appetite","Grade 2",2,"N","None",445
"SUBJ-0294","BENCHMARK-010","Active",1,"Y","Gastrointestinal disorders","Nausea","Grade 1",1,"N","None",214
"SUBJ-0295","BENCHMARK-010","Active",1,"Y","Gastrointestinal disorders","Vomiting","Grade 2",2,"N","None",81
"SUBJ-0295","BENCHMARK-010","Active",1,"Y","Respiratory, thoracic and mediastinal disorders","Dyspnoea","Grade 1",1,"N","None",331
"SUBJ-0295","BENCHMARK-010","Active",1,"Y","Gastrointestinal disorders","Constipation","Grade 1",1,"N","Dose interrupted",283
"SUBJ-0296","BENCHMARK-010","Active",1,"Y","General disorders","Pyrexia","Grade 2",2,"N","Dose interrupted",138
"SUBJ-0296","BENCHMARK-010","Active",1,"Y","Metabolism and nutrition disorders","Hypokalaemia","Grade 2",2,"N","None",307
"SUBJ-0296","BENCHMARK-010","Active",1,"Y","Respiratory, thoracic and mediastinal disorders","Cough","Grade 2",2,"N","None",273
"SUBJ-0296","BENCHMARK-010","Active",1,"Y","Metabolism and nutrition disorders","Hypokalaemia","Grade 2",2,"N","None",310
"SUBJ-0296","BENCHMARK-010","Active",1,"Y","Investigations","ALT increased","Grade 3",3,"N","None",104
"SUBJ-0297","BENCHMARK-010","Active",1,"Y","Metabolism and nutrition disorders","Hypokalaemia","Grade 2",2,"N","None",51
"SUBJ-0297","BENCHMARK-010","Active",1,"Y","Respiratory, thoracic and mediastinal disorders","Cough","Grade 2",2,"N","None",289
"SUBJ-0297","BENCHMARK-010","Active",1,"Y","Respiratory, thoracic and mediastinal disorders","Cough","Grade 1",1,"N","None",23
"SUBJ-0298","BENCHMARK-010","Active",1,"Y","General disorders","Fatigue","Grade 1",1,"N","None",25
"SUBJ-0298","BENCHMARK-010","Active",1,"Y","Blood and lymphatic system disorders","Thrombocytopenia","Grade 5",5,"Y","Drug withdrawn",22
"SUBJ-0299","BENCHMARK-010","Active",1,"Y","Gastrointestinal disorders","Abdominal pain","Grade 1",1,"N","None",122
"SUBJ-0299","BENCHMARK-010","Active",1,"Y","Gastrointestinal disorders","Nausea","Grade 1",1,"N","None",102
"SUBJ-0299","BENCHMARK-010","Active",1,"Y","Nervous system disorders","Headache","Grade 2",2,"N","Dose interrupted",241
"SUBJ-0300","BENCHMARK-010","Active",1,"Y","Metabolism and nutrition disorders","Decreased appetite","Grade 1",1,"N","None",152
"SUBJ-0300","BENCHMARK-010","Active",1,"Y","Skin and subcutaneous tissue disorders","Alopecia","Grade 1",1,"N","None",126
"SUBJ-0301","BENCHMARK-010","Active",1,"Y","Skin and subcutaneous tissue disorders","Pruritus","Grade 1",1,"N","None",472
"SUBJ-0301","BENCHMARK-010","Active",1,"Y","Gastrointestinal disorders","Constipation","Grade 5",5,"Y","Drug withdrawn",27
"SUBJ-0302","BENCHMARK-010","Active",1,"Y","Skin and subcutaneous tissue disorders","Alopecia","Grade 1",1,"N","Dose interrupted",83
"SUBJ-0303","BENCHMARK-010","Active",1,"Y","Blood and lymphatic system disorders","Anaemia","Grade 1",1,"N","None",207
"SUBJ-0303","BENCHMARK-010","Active",1,"Y","Metabolism and nutrition disorders","Hypokalaemia","Grade 1",1,"N","None",389
"SUBJ-0303","BENCHMARK-010","Active",1,"Y","Nervous system disorders","Peripheral sensory neuropathy","Grade 1",1,"N","None",32
"SUBJ-0303","BENCHMARK-010","Active",1,"Y","Nervous system disorders","Dizziness","Grade 1",1,"N","None",327
"SUBJ-0304","BENCHMARK-010","Active",1,"Y","Respiratory, thoracic and mediastinal disorders","Cough","Grade 2",2,"N","None",374
"SUBJ-0304","BENCHMARK-010","Active",1,"Y","Skin and subcutaneous tissue disorders","Rash","Grade 1",1,"N","None",244
"SUBJ-0305","BENCHMARK-010","Active",1,"Y","Investigations","AST increased","Grade 1",1,"N","None",213
"SUBJ-0306","BENCHMARK-010","Active",1,"Y","Metabolism and nutrition disorders","Decreased appetite","Grade 2",2,"N","None",99
"SUBJ-0306","BENCHMARK-010","Active",1,"Y","Nervous system disorders","Peripheral sensory neuropathy","Grade 1",1,"N","None",252
"SUBJ-0306","BENCHMARK-010","Active",1,"Y","Investigations","ALT increased","Grade 1",1,"N","None",431
"SUBJ-0307","BENCHMARK-010","Active",1,"Y","General disorders","Oedema peripheral","Grade 1",1,"N","None",248
"SUBJ-0307","BENCHMARK-010","Active",1,"Y","Gastrointestinal disorders","Constipation","Grade 1",1,"N","None",204
"SUBJ-0308","BENCHMARK-010","Active",1,"Y","Skin and subcutaneous tissue disorders","Pruritus","Grade 3",3,"N","None",94
"SUBJ-0308","BENCHMARK-010","Active",1,"Y","Metabolism and nutrition disorders","Hypokalaemia","Grade 2",2,"N","None",276
"SUBJ-0308","BENCHMARK-010","Active",1,"Y","Blood and lymphatic system disorders","Neutropenia","Grade 1",1,"N","None",260
"SUBJ-0310","BENCHMARK-010","Active",1,"Y","Blood and lymphatic system disorders","Anaemia","Grade 1",1,"N","None",67
"SUBJ-0310","BENCHMARK-010","Active",1,"Y","General disorders","Oedema peripheral","Grade 2",2,"N","None",29
"SUBJ-0310","BENCHMARK-010","Active",1,"Y","Respiratory, thoracic and mediastinal disorders","Cough","Grade 1",1,"N","None",78
"SUBJ-0310","BENCHMARK-010","Active",1,"Y","Metabolism and nutrition disorders","Hypokalaemia","Grade 1",1,"N","None",82
"SUBJ-0312","BENCHMARK-010","Active",1,"Y","Skin and subcutaneous tissue disorders","Pruritus","Grade 1",1,"N","None",253
"SUBJ-0312","BENCHMARK-010","Active",1,"Y","Metabolism and nutrition disorders","Hypokalaemia","Grade 3",3,"N","None",223
"SUBJ-0313","BENCHMARK-010","Active",1,"Y","Respiratory, thoracic and mediastinal disorders","Cough","Grade 1",1,"N","None",56
"SUBJ-0313","BENCHMARK-010","Active",1,"Y","General disorders","Fatigue","Grade 1",1,"N","None",256
"SUBJ-0313","BENCHMARK-010","Active",1,"Y","Respiratory, thoracic and mediastinal disorders","Cough","Grade 1",1,"N","None",8
"SUBJ-0313","BENCHMARK-010","Active",1,"Y","Gastrointestinal disorders","Constipation","Grade 1",1,"N","None",105
"SUBJ-0313","BENCHMARK-010","Active",1,"Y","Skin and subcutaneous tissue disorders","Pruritus","Grade 3",3,"N","Dose reduced",57
"SUBJ-0314","BENCHMARK-010","Active",1,"Y","Investigations","AST increased","Grade 1",1,"N","None",430
"SUBJ-0314","BENCHMARK-010","Active",1,"Y","Blood and lymphatic system disorders","Anaemia","Grade 2",2,"N","Dose interrupted",161
"SUBJ-0315","BENCHMARK-010","Active",1,"Y","Nervous system disorders","Dizziness","Grade 3",3,"Y","Dose interrupted",184
"SUBJ-0315","BENCHMARK-010","Active",1,"Y","Nervous system disorders","Dizziness","Grade 1",1,"N","None",95
"SUBJ-0316","BENCHMARK-010","Active",1,"Y","Metabolism and nutrition disorders","Hypokalaemia","Grade 1",1,"N","None",6
"SUBJ-0316","BENCHMARK-010","Active",1,"Y","Blood and lymphatic system disorders","Neutropenia","Grade 1",1,"N","None",50
"SUBJ-0317","BENCHMARK-010","Active",1,"Y","Investigations","AST increased","Grade 1",1,"N","None",93
"SUBJ-0318","BENCHMARK-010","Active",1,"Y","Skin and subcutaneous tissue disorders","Alopecia","Grade 1",1,"N","None",141
"SUBJ-0318","BENCHMARK-010","Active",1,"Y","Investigations","Blood creatinine increased","Grade 1",1,"N","None",171
"SUBJ-0318","BENCHMARK-010","Active",1,"Y","Respiratory, thoracic and mediastinal disorders","Cough","Grade 4",4,"Y","Drug withdrawn",40
"SUBJ-0318","BENCHMARK-010","Active",1,"Y","Metabolism and nutrition disorders","Decreased appetite","Grade 2",2,"N","None",181
"SUBJ-0319","BENCHMARK-010","Active",1,"Y","Respiratory, thoracic and mediastinal disorders","Cough","Grade 2",2,"N","Dose interrupted",410
"SUBJ-0319","BENCHMARK-010","Active",1,"Y","Skin and subcutaneous tissue disorders","Rash","Grade 1",1,"N","None",139
"SUBJ-0320","BENCHMARK-010","Active",1,"Y","Metabolism and nutrition disorders","Decreased appetite","Grade 2",2,"N","Dose interrupted",313
"SUBJ-0320","BENCHMARK-010","Active",1,"Y","Respiratory, thoracic and mediastinal disorders","Dyspnoea","Grade 1",1,"N","None",20
"SUBJ-0320","BENCHMARK-010","Active",1,"Y","Investigations","Blood creatinine increased","Grade 2",2,"N","None",94
"SUBJ-0321","BENCHMARK-010","Active",1,"Y","Metabolism and nutrition disorders","Decreased appetite","Grade 2",2,"N","None",122
"SUBJ-0321","BENCHMARK-010","Active",1,"Y","Nervous system disorders","Dizziness","Grade 2",2,"N","Dose interrupted",247
"SUBJ-0321","BENCHMARK-010","Active",1,"Y","Metabolism and nutrition disorders","Decreased appetite","Grade 1",1,"N","None",157
"SUBJ-0321","BENCHMARK-010","Active",1,"Y","Blood and lymphatic system disorders","Thrombocytopenia","Grade 3",3,"N","None",295
"SUBJ-0321","BENCHMARK-010","Active",1,"Y","General disorders","Pyrexia","Grade 2",2,"N","Dose interrupted",59
"SUBJ-0322","BENCHMARK-010","Active",1,"Y","Blood and lymphatic system disorders","Anaemia","Grade 1",1,"N","Dose interrupted",336
"SUBJ-0323","BENCHMARK-010","Active",1,"Y","Respiratory, thoracic and mediastinal disorders","Dyspnoea","Grade 1",1,"N","None",47
"SUBJ-0323","BENCHMARK-010","Active",1,"Y","Respiratory, thoracic and mediastinal disorders","Cough","Grade 2",2,"N","None",2
"SUBJ-0324","BENCHMARK-010","Active",1,"Y","Respiratory, thoracic and mediastinal disorders","Dyspnoea","Grade 1",1,"N","None",13
"SUBJ-0324","BENCHMARK-010","Active",1,"Y","Skin and subcutaneous tissue disorders","Pruritus","Grade 1",1,"N","None",155
"SUBJ-0324","BENCHMARK-010","Active",1,"Y","Respiratory, thoracic and mediastinal disorders","Cough","Grade 2",2,"N","None",290
"SUBJ-0324","BENCHMARK-010","Active",1,"Y","Metabolism and nutrition disorders","Hypokalaemia","Grade 1",1,"N","None",15
"SUBJ-0324","BENCHMARK-010","Active",1,"Y","Metabolism and nutrition disorders","Hypokalaemia","Grade 1",1,"N","None",195
"SUBJ-0324","BENCHMARK-010","Active",1,"Y","General disorders","Oedema peripheral","Grade 2",2,"N","None",75
"SUBJ-0325","BENCHMARK-010","Active",1,"Y","Metabolism and nutrition disorders","Hypokalaemia","Grade 1",1,"N","None",61
"SUBJ-0325","BENCHMARK-010","Active",1,"Y","Blood and lymphatic system disorders","Anaemia","Grade 2",2,"N","None",88
"SUBJ-0326","BENCHMARK-010","Active",1,"Y","Blood and lymphatic system disorders","Neutropenia","Grade 1",1,"N","None",394
"SUBJ-0326","BENCHMARK-010","Active",1,"Y","Skin and subcutaneous tissue disorders","Alopecia","Grade 1",1,"N","None",392
"SUBJ-0326","BENCHMARK-010","Active",1,"Y","Blood and lymphatic system disorders","Anaemia","Grade 1",1,"N","None",80
"SUBJ-0326","BENCHMARK-010","Active",1,"Y","Metabolism and nutrition disorders","Decreased appetite","Grade 1",1,"N","None",67
"SUBJ-0326","BENCHMARK-010","Active",1,"Y","Respiratory, thoracic and mediastinal disorders","Cough","Grade 3",3,"N","Dose reduced",281
"SUBJ-0327","BENCHMARK-010","Active",1,"Y","Metabolism and nutrition disorders","Hypokalaemia","Grade 1",1,"N","Dose interrupted",204
"SUBJ-0328","BENCHMARK-010","Active",1,"Y","Metabolism and nutrition disorders","Hypokalaemia","Grade 1",1,"N","None",273
"SUBJ-0328","BENCHMARK-010","Active",1,"Y","Skin and subcutaneous tissue disorders","Rash","Grade 1",1,"N","None",174
"SUBJ-0330","BENCHMARK-010","Active",1,"Y","Nervous system disorders","Peripheral sensory neuropathy","Grade 1",1,"N","None",20
"SUBJ-0331","BENCHMARK-010","Active",1,"Y","Respiratory, thoracic and mediastinal disorders","Cough","Grade 2",2,"N","None",174
"SUBJ-0332","BENCHMARK-010","Active",1,"Y","Blood and lymphatic system disorders","Anaemia","Grade 3",3,"Y","Dose interrupted",254
"SUBJ-0332","BENCHMARK-010","Active",1,"Y","Metabolism and nutrition disorders","Decreased appetite","Grade 3",3,"Y","None",152
"SUBJ-0332","BENCHMARK-010","Active",1,"Y","Respiratory, thoracic and mediastinal disorders","Dyspnoea","Grade 1",1,"N","Dose interrupted",90
"SUBJ-0333","BENCHMARK-010","Active",1,"Y","Investigations","AST increased","Grade 1",1,"N","None",272
"SUBJ-0333","BENCHMARK-010","Active",1,"Y","Blood and lymphatic system disorders","Thrombocytopenia","Grade 1",1,"N","None",213
"SUBJ-0333","BENCHMARK-010","Active",1,"Y","Skin and subcutaneous tissue disorders","Rash","Grade 3",3,"N","Dose reduced",98
"SUBJ-0333","BENCHMARK-010","Active",1,"Y","General disorders","Pyrexia","Grade 1",1,"N","None",368
"SUBJ-0333","BENCHMARK-010","Active",1,"Y","Blood and lymphatic system disorders","Thrombocytopenia","Grade 1",1,"N","None",262
"SUBJ-0333","BENCHMARK-010","Active",1,"Y","Skin and subcutaneous tissue disorders","Rash","Grade 1",1,"N","None",145
"SUBJ-0334","BENCHMARK-010","Active",1,"Y","Investigations","AST increased","Grade 4",4,"Y","Drug withdrawn",51
"SUBJ-0334","BENCHMARK-010","Active",1,"Y","Blood and lymphatic system disorders","Thrombocytopenia","Grade 2",2,"N","None",4
"SUBJ-0335","BENCHMARK-010","Active",1,"Y","General disorders","Fatigue","Grade 2",2,"N","Dose interrupted",250
"SUBJ-0335","BENCHMARK-010","Active",1,"Y","Blood and lymphatic system disorders","Thrombocytopenia","Grade 2",2,"N","None",326
"SUBJ-0335","BENCHMARK-010","Active",1,"Y","Skin and subcutaneous tissue disorders","Rash","Grade 2",2,"N","None",383
"SUBJ-0335","BENCHMARK-010","Active",1,"Y","Skin and subcutaneous tissue disorders","Rash","Grade 1",1,"N","Dose interrupted",26
"SUBJ-0335","BENCHMARK-010","Active",1,"Y","Metabolism and nutrition disorders","Decreased appetite","Grade 1",1,"N","None",27
"SUBJ-0336","BENCHMARK-010","Active",1,"Y","Skin and subcutaneous tissue disorders","Alopecia","Grade 2",2,"N","None",18
"SUBJ-0336","BENCHMARK-010","Active",1,"Y","Blood and lymphatic system disorders","Neutropenia","Grade 1",1,"N","None",142
"SUBJ-0336","BENCHMARK-010","Active",1,"Y","General disorders","Pyrexia","Grade 1",1,"N","None",133
"SUBJ-0337","BENCHMARK-010","Active",1,"Y","Blood and lymphatic system disorders","Thrombocytopenia","Grade 3",3,"N","Dose interrupted",106
"SUBJ-0337","BENCHMARK-010","Active",1,"Y","Metabolism and nutrition disorders","Decreased appetite","Grade 1",1,"N","None",60
"SUBJ-0337","BENCHMARK-010","Active",1,"Y","Nervous system disorders","Headache","Grade 4",4,"Y","Drug withdrawn",257
"SUBJ-0337","BENCHMARK-010","Active",1,"Y","General disorders","Fatigue","Grade 1",1,"N","None",200
"SUBJ-0338","BENCHMARK-010","Active",1,"Y","Investigations","AST increased","Grade 3",3,"N","Dose reduced",29
"SUBJ-0339","BENCHMARK-010","Active",1,"Y","Nervous system disorders","Dizziness","Grade 2",2,"N","None",406
"SUBJ-0339","BENCHMARK-010","Active",1,"Y","Respiratory, thoracic and mediastinal disorders","Cough","Grade 2",2,"N","None",211
"SUBJ-0340","BENCHMARK-010","Active",1,"Y","General disorders","Oedema peripheral","Grade 1",1,"N","None",168
"SUBJ-0340","BENCHMARK-010","Active",1,"Y","Blood and lymphatic system disorders","Thrombocytopenia","Grade 2",2,"N","None",351
"SUBJ-0340","BENCHMARK-010","Active",1,"Y","General disorders","Fatigue","Grade 2",2,"N","None",285
"SUBJ-0340","BENCHMARK-010","Active",1,"Y","Blood and lymphatic system disorders","Anaemia","Grade 1",1,"N","None",93
"SUBJ-0340","BENCHMARK-010","Active",1,"Y","Blood and lymphatic system disorders","Neutropenia","Grade 1",1,"N","None",71
"SUBJ-0341","BENCHMARK-010","Active",1,"Y","Metabolism and nutrition disorders","Decreased appetite","Grade 2",2,"N","None",389
"SUBJ-0341","BENCHMARK-010","Active",1,"Y","Skin and subcutaneous tissue disorders","Alopecia","Grade 1",1,"N","None",68
"SUBJ-0341","BENCHMARK-010","Active",1,"Y","Respiratory, thoracic and mediastinal disorders","Dyspnoea","Grade 3",3,"N","None",140
"SUBJ-0342","BENCHMARK-010","Active",1,"Y","Metabolism and nutrition disorders","Decreased appetite","Grade 5",5,"Y","Drug withdrawn",265
"SUBJ-0342","BENCHMARK-010","Active",1,"Y","General disorders","Oedema peripheral","Grade 2",2,"N","None",218
"SUBJ-0342","BENCHMARK-010","Active",1,"Y","Skin and subcutaneous tissue disorders","Rash","Grade 2",2,"N","None",152
"SUBJ-0343","BENCHMARK-010","Active",1,"Y","General disorders","Pyrexia","Grade 1",1,"N","None",158
"SUBJ-0344","BENCHMARK-010","Active",1,"Y","Metabolism and nutrition disorders","Decreased appetite","Grade 1",1,"N","None",379
"SUBJ-0344","BENCHMARK-010","Active",1,"Y","Metabolism and nutrition disorders","Decreased appetite","Grade 5",5,"Y","Drug withdrawn",144
"SUBJ-0344","BENCHMARK-010","Active",1,"Y","General disorders","Oedema peripheral","Grade 2",2,"N","None",114
"SUBJ-0345","BENCHMARK-010","Active",1,"Y","Skin and subcutaneous tissue disorders","Rash","Grade 3",3,"N","None",81
"SUBJ-0345","BENCHMARK-010","Active",1,"Y","General disorders","Pyrexia","Grade 1",1,"N","None",535
"SUBJ-0345","BENCHMARK-010","Active",1,"Y","Metabolism and nutrition disorders","Decreased appetite","Grade 1",1,"N","None",386
"SUBJ-0345","BENCHMARK-010","Active",1,"Y","Gastrointestinal disorders","Vomiting","Grade 2",2,"N","None",140
"SUBJ-0346","BENCHMARK-010","Active",1,"Y","Blood and lymphatic system disorders","Neutropenia","Grade 1",1,"N","None",55
"SUBJ-0346","BENCHMARK-010","Active",1,"Y","General disorders","Fatigue","Grade 1",1,"N","None",198
"SUBJ-0346","BENCHMARK-010","Active",1,"Y","Investigations","Blood creatinine increased","Grade 2",2,"N","None",117
"SUBJ-0346","BENCHMARK-010","Active",1,"Y","General disorders","Pyrexia","Grade 2",2,"N","None",38
"SUBJ-0347","BENCHMARK-010","Active",1,"Y","Respiratory, thoracic and mediastinal disorders","Dyspnoea","Grade 4",4,"Y","Drug withdrawn",185
"SUBJ-0347","BENCHMARK-010","Active",1,"Y","Blood and lymphatic system disorders","Thrombocytopenia","Grade 1",1,"N","Dose interrupted",7
"SUBJ-0348","BENCHMARK-010","Active",1,"Y","General disorders","Pyrexia","Grade 3",3,"Y","None",39
"SUBJ-0348","BENCHMARK-010","Active",1,"Y","Respiratory, thoracic and mediastinal disorders","Dyspnoea","Grade 3",3,"Y","None",405
"SUBJ-0348","BENCHMARK-010","Active",1,"Y","Skin and subcutaneous tissue disorders","Rash","Grade 2",2,"N","None",319
"SUBJ-0349","BENCHMARK-010","Active",1,"Y","Metabolism and nutrition disorders","Decreased appetite","Grade 2",2,"N","None",112
"SUBJ-0349","BENCHMARK-010","Active",1,"Y","Nervous system disorders","Headache","Grade 2",2,"N","None",77
"SUBJ-0349","BENCHMARK-010","Active",1,"Y","Blood and lymphatic system disorders","Neutropenia","Grade 1",1,"N","None",343
"SUBJ-0349","BENCHMARK-010","Active",1,"Y","Metabolism and nutrition disorders","Hypokalaemia","Grade 2",2,"N","None",132
"SUBJ-0350","BENCHMARK-010","Active",1,"Y","Respiratory, thoracic and mediastinal disorders","Dyspnoea","Grade 4",4,"Y","Drug withdrawn",27
"SUBJ-0350","BENCHMARK-010","Active",1,"Y","Respiratory, thoracic and mediastinal disorders","Cough","Grade 1",1,"N","None",109
"SUBJ-0351","BENCHMARK-010","Active",1,"Y","Investigations","ALT increased","Grade 1",1,"N","Dose interrupted",17
"SUBJ-0351","BENCHMARK-010","Active",1,"Y","Skin and subcutaneous tissue disorders","Alopecia","Grade 2",2,"N","None",378
"SUBJ-0351","BENCHMARK-010","Active",1,"Y","Gastrointestinal disorders","Vomiting","Grade 1",1,"N","None",341
"SUBJ-0352","BENCHMARK-010","Active",1,"Y","Skin and subcutaneous tissue disorders","Rash","Grade 1",1,"N","None",55
"SUBJ-0352","BENCHMARK-010","Active",1,"Y","Blood and lymphatic system disorders","Thrombocytopenia","Grade 3",3,"N","None",603
"SUBJ-0352","BENCHMARK-010","Active",1,"Y","Respiratory, thoracic and mediastinal disorders","Dyspnoea","Grade 5",5,"Y","Drug withdrawn",358
"SUBJ-0353","BENCHMARK-010","Active",1,"Y","Investigations","Blood creatinine increased","Grade 1",1,"N","None",124
"SUBJ-0353","BENCHMARK-010","Active",1,"Y","General disorders","Pyrexia","Grade 2",2,"N","None",13
"SUBJ-0353","BENCHMARK-010","Active",1,"Y","Metabolism and nutrition disorders","Decreased appetite","Grade 1",1,"N","None",208
"SUBJ-0353","BENCHMARK-010","Active",1,"Y","Nervous system disorders","Headache","Grade 1",1,"N","None",374
"SUBJ-0354","BENCHMARK-010","Active",1,"Y","General disorders","Oedema peripheral","Grade 2",2,"N","None",260
"SUBJ-0354","BENCHMARK-010","Active",1,"Y","Gastrointestinal disorders","Constipation","Grade 1",1,"N","None",224
"SUBJ-0357","BENCHMARK-010","Active",1,"Y","Investigations","ALT increased","Grade 3",3,"N","Dose reduced",211
"SUBJ-0357","BENCHMARK-010","Active",1,"Y","Nervous system disorders","Dizziness","Grade 4",4,"Y","Drug withdrawn",28
"SUBJ-0357","BENCHMARK-010","Active",1,"Y","Nervous system disorders","Peripheral sensory neuropathy","Grade 2",2,"N","Dose interrupted",153
"SUBJ-0358","BENCHMARK-010","Active",1,"Y","Gastrointestinal disorders","Nausea","Grade 1",1,"N","None",318
"SUBJ-0358","BENCHMARK-010","Active",1,"Y","Gastrointestinal disorders","Nausea","Grade 1",1,"N","None",229
"SUBJ-0358","BENCHMARK-010","Active",1,"Y","Metabolism and nutrition disorders","Decreased appetite","Grade 3",3,"Y","None",349
"SUBJ-0359","BENCHMARK-010","Active",1,"Y","Gastrointestinal disorders","Constipation","Grade 1",1,"N","None",25
"SUBJ-0359","BENCHMARK-010","Active",1,"Y","Metabolism and nutrition disorders","Hypokalaemia","Grade 3",3,"N","Dose reduced",6
"SUBJ-0359","BENCHMARK-010","Active",1,"Y","Gastrointestinal disorders","Diarrhoea","Grade 2",2,"N","Dose interrupted",21
"SUBJ-0360","BENCHMARK-010","Active",1,"Y","Respiratory, thoracic and mediastinal disorders","Cough","Grade 1",1,"N","None",262
"SUBJ-0360","BENCHMARK-010","Active",1,"Y","Blood and lymphatic system disorders","Thrombocytopenia","Grade 1",1,"N","None",223
"SUBJ-0360","BENCHMARK-010","Active",1,"Y","Nervous system disorders","Peripheral sensory neuropathy","Grade 5",5,"Y","Drug withdrawn",253
"SUBJ-0360","BENCHMARK-010","Active",1,"Y","Respiratory, thoracic and mediastinal disorders","Cough","Grade 2",2,"N","Dose interrupted",155
"SUBJ-0360","BENCHMARK-010","Active",1,"Y","Blood and lymphatic system disorders","Neutropenia","Grade 1",1,"N","None",273
"SUBJ-0361","BENCHMARK-010","Active",1,"Y","Blood and lymphatic system disorders","Thrombocytopenia","Grade 1",1,"N","None",12
"SUBJ-0361","BENCHMARK-010","Active",1,"Y","Investigations","ALT increased","Grade 1",1,"N","None",20
"SUBJ-0361","BENCHMARK-010","Active",1,"Y","Skin and subcutaneous tissue disorders","Pruritus","Grade 1",1,"N","None",62
"SUBJ-0361","BENCHMARK-010","Active",1,"Y","Gastrointestinal disorders","Vomiting","Grade 1",1,"N","None",51
"SUBJ-0362","BENCHMARK-010","Active",1,"Y","Blood and lymphatic system disorders","Neutropenia","Grade 1",1,"N","None",269
"SUBJ-0362","BENCHMARK-010","Active",1,"Y","Metabolism and nutrition disorders","Hypokalaemia","Grade 1",1,"N","None",186
"SUBJ-0363","BENCHMARK-010","Active",1,"Y","Gastrointestinal disorders","Diarrhoea","Grade 1",1,"N","None",160
"SUBJ-0363","BENCHMARK-010","Active",1,"Y","Metabolism and nutrition disorders","Hypokalaemia","Grade 2",2,"N","None",307
"SUBJ-0363","BENCHMARK-010","Active",1,"Y","Blood and lymphatic system disorders","Neutropenia","Grade 1",1,"N","None",246
"SUBJ-0363","BENCHMARK-010","Active",1,"Y","Gastrointestinal disorders","Diarrhoea","Grade 1",1,"N","None",175
"SUBJ-0363","BENCHMARK-010","Active",1,"Y","Blood and lymphatic system disorders","Thrombocytopenia","Grade 1",1,"N","None",192
"SUBJ-0364","BENCHMARK-010","Active",1,"Y","Blood and lymphatic system disorders","Neutropenia","Grade 1",1,"N","Dose interrupted",43
"SUBJ-0364","BENCHMARK-010","Active",1,"Y","Respiratory, thoracic and mediastinal disorders","Dyspnoea","Grade 1",1,"N","None",280
"SUBJ-0366","BENCHMARK-010","Active",1,"Y","Metabolism and nutrition disorders","Hypokalaemia","Grade 1",1,"N","None",140
"SUBJ-0366","BENCHMARK-010","Active",1,"Y","Skin and subcutaneous tissue disorders","Alopecia","Grade 1",1,"N","None",109
"SUBJ-0366","BENCHMARK-010","Active",1,"Y","Nervous system disorders","Headache","Grade 2",2,"N","Dose interrupted",448
"SUBJ-0366","BENCHMARK-010","Active",1,"Y","Gastrointestinal disorders","Diarrhoea","Grade 1",1,"N","None",39
"SUBJ-0366","BENCHMARK-010","Active",1,"Y","Metabolism and nutrition disorders","Hypokalaemia","Grade 1",1,"N","None",85
"SUBJ-0367","BENCHMARK-010","Active",1,"Y","Gastrointestinal disorders","Abdominal pain","Grade 1",1,"N","None",16
"SUBJ-0368","BENCHMARK-010","Active",1,"Y","Respiratory, thoracic and mediastinal disorders","Cough","Grade 2",2,"N","Dose interrupted",59
"SUBJ-0368","BENCHMARK-010","Active",1,"Y","Investigations","ALT increased","Grade 3",3,"N","None",202
"SUBJ-0368","BENCHMARK-010","Active",1,"Y","Investigations","AST increased","Grade 3",3,"N","None",86
"SUBJ-0369","BENCHMARK-010","Active",1,"Y","Skin and subcutaneous tissue disorders","Rash","Grade 2",2,"N","None",44
"SUBJ-0369","BENCHMARK-010","Active",1,"Y","Respiratory, thoracic and mediastinal disorders","Cough","Grade 2",2,"N","None",9
"SUBJ-0370","BENCHMARK-010","Active",1,"Y","Gastrointestinal disorders","Vomiting","Grade 1",1,"N","None",52
"SUBJ-0370","BENCHMARK-010","Active",1,"Y","Blood and lymphatic system disorders","Anaemia","Grade 3",3,"N","Dose reduced",189
"SUBJ-0370","BENCHMARK-010","Active",1,"Y","Nervous system disorders","Headache","Grade 1",1,"N","None",60
"SUBJ-0371","BENCHMARK-010","Active",1,"Y","Nervous system disorders","Peripheral sensory neuropathy","Grade 2",2,"N","None",163
"SUBJ-0372","BENCHMARK-010","Active",1,"Y","Nervous system disorders","Peripheral sensory neuropathy","Grade 3",3,"N","Dose interrupted",336
"SUBJ-0372","BENCHMARK-010","Active",1,"Y","Investigations","ALT increased","Grade 1",1,"N","None",42
"SUBJ-0372","BENCHMARK-010","Active",1,"Y","Blood and lymphatic system disorders","Anaemia","Grade 1",1,"N","None",134
"SUBJ-0373","BENCHMARK-010","Active",1,"Y","General disorders","Fatigue","Grade 1",1,"N","None",90
"SUBJ-0374","BENCHMARK-010","Active",1,"Y","Metabolism and nutrition disorders","Hypokalaemia","Grade 1",1,"N","None",340
"SUBJ-0374","BENCHMARK-010","Active",1,"Y","Investigations","Blood creatinine increased","Grade 1",1,"N","None",274
"SUBJ-0375","BENCHMARK-010","Active",1,"Y","Nervous system disorders","Dizziness","Grade 3",3,"Y","Dose reduced",160
"SUBJ-0375","BENCHMARK-010","Active",1,"Y","Metabolism and nutrition disorders","Hypokalaemia","Grade 2",2,"N","None",253
"SUBJ-0375","BENCHMARK-010","Active",1,"Y","Metabolism and nutrition disorders","Hypokalaemia","Grade 1",1,"N","None",188
"SUBJ-0376","BENCHMARK-010","Active",1,"Y","General disorders","Oedema peripheral","Grade 3",3,"Y","None",190
"SUBJ-0376","BENCHMARK-010","Active",1,"Y","Metabolism and nutrition disorders","Hypokalaemia","Grade 1",1,"N","None",150
"SUBJ-0377","BENCHMARK-010","Active",1,"Y","Gastrointestinal disorders","Abdominal pain","Grade 2",2,"N","Dose interrupted",420
"SUBJ-0377","BENCHMARK-010","Active",1,"Y","Metabolism and nutrition disorders","Hypokalaemia","Grade 2",2,"N","None",383
"SUBJ-0377","BENCHMARK-010","Active",1,"Y","Blood and lymphatic system disorders","Anaemia","Grade 1",1,"N","None",289
"SUBJ-0377","BENCHMARK-010","Active",1,"Y","Nervous system disorders","Headache","Grade 2",2,"N","None",261
"SUBJ-0377","BENCHMARK-010","Active",1,"Y","Investigations","ALT increased","Grade 1",1,"N","Dose interrupted",93
"SUBJ-0378","BENCHMARK-010","Active",1,"Y","Gastrointestinal disorders","Abdominal pain","Grade 1",1,"N","None",219
"SUBJ-0379","BENCHMARK-010","Active",1,"Y","Gastrointestinal disorders","Nausea","Grade 1",1,"N","None",235
"SUBJ-0379","BENCHMARK-010","Active",1,"Y","Gastrointestinal disorders","Diarrhoea","Grade 4",4,"Y","Drug withdrawn",49
"SUBJ-0380","BENCHMARK-010","Active",1,"Y","Respiratory, thoracic and mediastinal disorders","Dyspnoea","Grade 2",2,"N","None",58
"SUBJ-0380","BENCHMARK-010","Active",1,"Y","Respiratory, thoracic and mediastinal disorders","Dyspnoea","Grade 2",2,"N","None",30
"SUBJ-0381","BENCHMARK-010","Active",1,"Y","Gastrointestinal disorders","Constipation","Grade 1",1,"N","None",182
"SUBJ-0382","BENCHMARK-010","Active",1,"Y","Metabolism and nutrition disorders","Hypokalaemia","Grade 2",2,"N","Dose interrupted",309
"SUBJ-0382","BENCHMARK-010","Active",1,"Y","Nervous system disorders","Dizziness","Grade 2",2,"N","None",228
"SUBJ-0383","BENCHMARK-010","Active",1,"Y","Metabolism and nutrition disorders","Hypokalaemia","Grade 2",2,"N","None",320
"SUBJ-0383","BENCHMARK-010","Active",1,"Y","Respiratory, thoracic and mediastinal disorders","Cough","Grade 1",1,"N","Dose interrupted",325
"SUBJ-0383","BENCHMARK-010","Active",1,"Y","Nervous system disorders","Dizziness","Grade 1",1,"N","None",172
"SUBJ-0383","BENCHMARK-010","Active",1,"Y","Skin and subcutaneous tissue disorders","Rash","Grade 2",2,"N","None",197
"SUBJ-0384","BENCHMARK-010","Active",1,"Y","Respiratory, thoracic and mediastinal disorders","Dyspnoea","Grade 2",2,"N","None",231
"SUBJ-0384","BENCHMARK-010","Active",1,"Y","Nervous system disorders","Peripheral sensory neuropathy","Grade 1",1,"N","None",265
"SUBJ-0384","BENCHMARK-010","Active",1,"Y","Blood and lymphatic system disorders","Thrombocytopenia","Grade 1",1,"N","None",482
"SUBJ-0384","BENCHMARK-010","Active",1,"Y","Skin and subcutaneous tissue disorders","Alopecia","Grade 1",1,"N","Dose interrupted",348
"SUBJ-0384","BENCHMARK-010","Active",1,"Y","Blood and lymphatic system disorders","Thrombocytopenia","Grade 1",1,"N","None",17
"SUBJ-0385","BENCHMARK-010","Active",1,"Y","Skin and subcutaneous tissue disorders","Pruritus","Grade 1",1,"N","Dose interrupted",60
"SUBJ-0385","BENCHMARK-010","Active",1,"Y","Investigations","Blood creatinine increased","Grade 2",2,"N","Dose interrupted",162
"SUBJ-0387","BENCHMARK-010","Active",1,"Y","Respiratory, thoracic and mediastinal disorders","Cough","Grade 1",1,"N","None",203
"SUBJ-0387","BENCHMARK-010","Active",1,"Y","Metabolism and nutrition disorders","Hypokalaemia","Grade 1",1,"N","None",44
"SUBJ-0387","BENCHMARK-010","Active",1,"Y","General disorders","Pyrexia","Grade 2",2,"N","None",430
"SUBJ-0388","BENCHMARK-010","Active",1,"Y","Nervous system disorders","Headache","Grade 1",1,"N","Dose interrupted",299
"SUBJ-0389","BENCHMARK-010","Active",1,"Y","Investigations","AST increased","Grade 3",3,"N","Dose reduced",291
"SUBJ-0389","BENCHMARK-010","Active",1,"Y","Investigations","ALT increased","Grade 2",2,"N","None",55
"SUBJ-0390","BENCHMARK-010","Active",1,"Y","Respiratory, thoracic and mediastinal disorders","Cough","Grade 1",1,"N","None",402
"SUBJ-0390","BENCHMARK-010","Active",1,"Y","Blood and lymphatic system disorders","Thrombocytopenia","Grade 3",3,"Y","Dose reduced",193
"SUBJ-0391","BENCHMARK-010","Active",1,"Y","Gastrointestinal disorders","Abdominal pain","Grade 3",3,"N","None",76
"SUBJ-0391","BENCHMARK-010","Active",1,"Y","Respiratory, thoracic and mediastinal disorders","Dyspnoea","Grade 1",1,"N","None",269
"SUBJ-0391","BENCHMARK-010","Active",1,"Y","General disorders","Pyrexia","Grade 2",2,"N","Dose interrupted",393
"SUBJ-0392","BENCHMARK-010","Active",1,"Y","General disorders","Fatigue","Grade 1",1,"N","Dose interrupted",33
"SUBJ-0392","BENCHMARK-010","Active",1,"Y","Nervous system disorders","Headache","Grade 1",1,"N","None",173
"SUBJ-0393","BENCHMARK-010","Active",1,"Y","General disorders","Fatigue","Grade 1",1,"N","None",75
"SUBJ-0393","BENCHMARK-010","Active",1,"Y","Nervous system disorders","Headache","Grade 1",1,"N","None",173
"SUBJ-0393","BENCHMARK-010","Active",1,"Y","Respiratory, thoracic and mediastinal disorders","Cough","Grade 1",1,"N","Dose interrupted",23
"SUBJ-0393","BENCHMARK-010","Active",1,"Y","Respiratory, thoracic and mediastinal disorders","Dyspnoea","Grade 1",1,"N","None",85
"SUBJ-0393","BENCHMARK-010","Active",1,"Y","Respiratory, thoracic and mediastinal disorders","Dyspnoea","Grade 1",1,"N","None",148
"SUBJ-0394","BENCHMARK-010","Active",1,"Y","Investigations","Blood creatinine increased","Grade 2",2,"N","Dose interrupted",102
"SUBJ-0394","BENCHMARK-010","Active",1,"Y","Investigations","AST increased","Grade 1",1,"N","None",78
"SUBJ-0395","BENCHMARK-010","Active",1,"Y","Investigations","ALT increased","Grade 1",1,"N","None",493
"SUBJ-0395","BENCHMARK-010","Active",1,"Y","Blood and lymphatic system disorders","Neutropenia","Grade 4",4,"Y","Drug withdrawn",264
"SUBJ-0395","BENCHMARK-010","Active",1,"Y","Investigations","Blood creatinine increased","Grade 3",3,"N","None",76
"SUBJ-0396","BENCHMARK-010","Active",1,"Y","Nervous system disorders","Dizziness","Grade 2",2,"N","None",430
"SUBJ-0396","BENCHMARK-010","Active",1,"Y","Investigations","AST increased","Grade 2",2,"N","Dose interrupted",252
"SUBJ-0397","BENCHMARK-010","Active",1,"Y","Metabolism and nutrition disorders","Hypokalaemia","Grade 1",1,"N","None",386
"SUBJ-0397","BENCHMARK-010","Active",1,"Y","Skin and subcutaneous tissue disorders","Rash","Grade 3",3,"N","None",511
"SUBJ-0398","BENCHMARK-010","Active",1,"Y","Skin and subcutaneous tissue disorders","Rash","Grade 1",1,"N","None",17
"SUBJ-0399","BENCHMARK-010","Active",1,"Y","General disorders","Fatigue","Grade 1",1,"N","None",370
"SUBJ-0399","BENCHMARK-010","Active",1,"Y","Skin and subcutaneous tissue disorders","Pruritus","Grade 2",2,"N","None",326
"SUBJ-0399","BENCHMARK-010","Active",1,"Y","Skin and subcutaneous tissue disorders","Pruritus","Grade 1",1,"N","None",42
"SUBJ-0399","BENCHMARK-010","Active",1,"Y","Skin and subcutaneous tissue disorders","Pruritus","Grade 3",3,"N","None",234
"SUBJ-0400","BENCHMARK-010","Active",1,"Y","Blood and lymphatic system disorders","Thrombocytopenia","Grade 1",1,"N","Dose interrupted",367
"SUBJ-0400","BENCHMARK-010","Active",1,"Y","Blood and lymphatic system disorders","Neutropenia","Grade 1",1,"N","None",248
