"USUBJID","TRT01P","TRT01PN","AESOC","AEDECOD","AESEV","AESER","AEACN","AEOSI","AESTDY"
"SUBJ-0001","Placebo",0,"General disorders","Pyrexia",1,"N","NONE","N",6
"SUBJ-0001","Placebo",0,"General disorders","Fatigue",2,"N","NONE","N",90
"SUBJ-0002","Placebo",0,"Skin and subcutaneous tissue disorders","Pruritus",1,"N","NONE","N",22
"SUBJ-0002","Placebo",0,"Nervous system disorders","Headache",3,"N","NONE","N",141
"SUBJ-0003","Placebo",0,"Gastrointestinal disorders","Nausea",2,"N","NONE","N",81
"SUBJ-0003","Placebo",0,"General disorders","Fatigue",1,"N","NONE","N",105
"SUBJ-0003","Placebo",0,"Gastrointestinal disorders","Vomiting",1,"N","NONE","N",170
"SUBJ-0003","Placebo",0,"Investigations","Alanine aminotransferase increased",1,"N","NONE","N",286
"SUBJ-0004","Placebo",0,"Blood and lymphatic system disorders","Neutropenia",4,"Y","DOSE_REDUCTION","N",77
"SUBJ-0004","Placebo",0,"Investigations","Blood bilirubin increased",2,"N","NONE","N",81
"SUBJ-0004","Placebo",0,"General disorders","Pyrexia",1,"N","NONE","N",467
"SUBJ-0005","Placebo",0,"Gastrointestinal disorders","Nausea",2,"N","NONE","N",197
"SUBJ-0005","Placebo",0,"Investigations","Aspartate aminotransferase increased",3,"N","NONE","Y",333
"SUBJ-0006","Placebo",0,"Investigations","Aspartate aminotransferase increased",2,"N","DOSE_REDUCTION","N",10
"SUBJ-0006","Placebo",0,"Gastrointestinal disorders","Decreased appetite",3,"N","DOSE_REDUCTION","N",121
"SUBJ-0006","Placebo",0,"Investigations","Alanine aminotransferase increased",2,"N","NONE","N",145
"SUBJ-0006","Placebo",0,"Gastrointestinal disorders","Diarrhoea",1,"N","NONE","N",169
"SUBJ-0006","Placebo",0,"Gastrointestinal disorders","Vomiting",2,"N","DOSE_REDUCTION","N",236
"SUBJ-0007","Placebo",0,"Blood and lymphatic system disorders","Neutropenia",2,"N","NONE","N",254
"SUBJ-0007","Placebo",0,"Investigations","Alanine aminotransferase increased",1,"N","NONE","N",306
"SUBJ-0008","Placebo",0,"Investigations","Aspartate aminotransferase increased",2,"N","NONE","N",65
"SUBJ-0008","Placebo",0,"Gastrointestinal disorders","Diarrhoea",3,"N","DOSE_REDUCTION","N",102
"SUBJ-0008","Placebo",0,"General disorders","Death",5,"Y","DRUG_WITHDRAWN","N",416
"SUBJ-0009","Placebo",0,"Investigations","Blood bilirubin increased",1,"N","DOSE_REDUCTION","N",498
"SUBJ-0009","Placebo",0,"Investigations","Alanine aminotransferase increased",1,"N","DOSE_REDUCTION","Y",527
"SUBJ-0010","Placebo",0,"Gastrointestinal disorders","Decreased appetite",1,"N","NONE","N",107
"SUBJ-0010","Placebo",0,"Nervous system disorders","Headache",1,"N","NONE","N",220
"SUBJ-0011","Placebo",0,"Investigations","Alanine aminotransferase increased",1,"N","NONE","N",285
"SUBJ-0011","Placebo",0,"General disorders","Fatigue",1,"N","NONE","N",417
"SUBJ-0012","Placebo",0,"Renal and urinary disorders","Acute kidney injury",4,"Y","DOSE_REDUCTION","N",212
"SUBJ-0012","Placebo",0,"Respiratory disorders","Cough",1,"N","DOSE_REDUCTION","N",235
"SUBJ-0013","Placebo",0,"Gastrointestinal disorders","Vomiting",1,"N","NONE","N",53
"SUBJ-0013","Placebo",0,"Investigations","Alanine aminotransferase increased",1,"N","NONE","N",98
"SUBJ-0014","Placebo",0,"Investigations","Blood bilirubin increased",2,"N","NONE","N",37
"SUBJ-0014","Placebo",0,"General disorders","Pyrexia",2,"N","NONE","N",83
"SUBJ-0014","Placebo",0,"Gastrointestinal disorders","Diarrhoea",2,"N","NONE","N",213
"SUBJ-0014","Placebo",0,"Blood and lymphatic system disorders","Thrombocytopenia",3,"N","DOSE_REDUCTION","N",371
"SUBJ-0014","Placebo",0,"General disorders","Death",5,"Y","DRUG_WITHDRAWN","N",400
"SUBJ-0015","Placebo",0,"General disorders","Pyrexia",3,"N","NONE","N",79
"SUBJ-0015","Placebo",0,"Gastrointestinal disorders","Vomiting",3,"N","NONE","N",141
"SUBJ-0015","Placebo",0,"Blood and lymphatic system disorders","Anaemia",2,"N","NONE","N",152
"SUBJ-0015","Placebo",0,"Gastrointestinal disorders","Nausea",3,"N","NONE","N",253
"SUBJ-0015","Placebo",0,"Nervous system disorders","Headache",2,"N","DOSE_REDUCTION","N",255
"SUBJ-0016","Placebo",0,"Gastrointestinal disorders","Diarrhoea",2,"N","NONE","N",171
"SUBJ-0017","Placebo",0,"Skin and subcutaneous tissue disorders","Rash",3,"Y","NONE","N",20
"SUBJ-0017","Placebo",0,"Blood and lymphatic system disorders","Neutropenia",2,"N","NONE","N",32
"SUBJ-0017","Placebo",0,"Nervous system disorders","Headache",1,"N","NONE","N",82
"SUBJ-0017","Placebo",0,"Gastrointestinal disorders","Decreased appetite",1,"N","DOSE_REDUCTION","N",112
"SUBJ-0018","Placebo",0,"Blood and lymphatic system disorders","Thrombocytopenia",4,"Y","DRUG_WITHDRAWN","N",10
"SUBJ-0018","Placebo",0,"Investigations","Aspartate aminotransferase increased",1,"N","NONE","N",118
"SUBJ-0019","Placebo",0,"Cardiac disorders","Atrial fibrillation",4,"Y","DOSE_REDUCTION","N",83
"SUBJ-0019","Placebo",0,"Gastrointestinal disorders","Vomiting",3,"Y","DRUG_WITHDRAWN","N",113
"SUBJ-0019","Placebo",0,"Nervous system disorders","Peripheral neuropathy",1,"N","DOSE_REDUCTION","N",135
"SUBJ-0019","Placebo",0,"Skin and subcutaneous tissue disorders","Rash",1,"N","NONE","N",146
"SUBJ-0020","Placebo",0,"Gastrointestinal disorders","Diarrhoea",1,"N","DOSE_REDUCTION","N",41
"SUBJ-0020","Placebo",0,"Blood and lymphatic system disorders","Neutropenia",2,"N","NONE","N",51
"SUBJ-0020","Placebo",0,"Gastrointestinal disorders","Nausea",1,"N","NONE","N",330
"SUBJ-0020","Placebo",0,"Skin and subcutaneous tissue disorders","Rash",1,"N","NONE","N",383
"SUBJ-0020","Placebo",0,"General disorders","Death",5,"Y","DRUG_WITHDRAWN","N",544
"SUBJ-0021","Placebo",0,"Skin and subcutaneous tissue disorders","Pruritus",2,"N","NONE","N",55
"SUBJ-0021","Placebo",0,"General disorders","Pyrexia",1,"N","NONE","N",163
"SUBJ-0021","Placebo",0,"Gastrointestinal disorders","Decreased appetite",1,"N","NONE","N",195
"SUBJ-0021","Placebo",0,"Blood and lymphatic system disorders","Neutropenia",3,"N","DOSE_REDUCTION","N",353
"SUBJ-0022","Placebo",0,"Skin and subcutaneous tissue disorders","Pruritus",1,"N","NONE","N",99
"SUBJ-0022","Placebo",0,"General disorders","Death",5,"Y","DRUG_WITHDRAWN","N",265
"SUBJ-0023","Placebo",0,"Blood and lymphatic system disorders","Thrombocytopenia",3,"N","NONE","N",193
"SUBJ-0023","Placebo",0,"General disorders","Fatigue",2,"N","NONE","N",198
"SUBJ-0023","Placebo",0,"Blood and lymphatic system disorders","Anaemia",2,"N","NONE","N",363
"SUBJ-0023","Placebo",0,"General disorders","Death",5,"Y","DRUG_WITHDRAWN","N",410
"SUBJ-0024","Placebo",0,"Respiratory disorders","Cough",2,"N","NONE","N",471
"SUBJ-0025","Placebo",0,"Skin and subcutaneous tissue disorders","Rash",2,"N","NONE","N",240
"SUBJ-0025","Placebo",0,"Gastrointestinal disorders","Diarrhoea",2,"N","NONE","N",265
"SUBJ-0025","Placebo",0,"General disorders","Fatigue",2,"N","NONE","N",491
"SUBJ-0025","Placebo",0,"Gastrointestinal disorders","Nausea",1,"N","DOSE_REDUCTION","N",573
"SUBJ-0027","Placebo",0,"Blood and lymphatic system disorders","Anaemia",2,"N","NONE","N",112
"SUBJ-0027","Placebo",0,"General disorders","Pyrexia",1,"N","NONE","N",253
"SUBJ-0027","Placebo",0,"General disorders","Fatigue",2,"N","NONE","N",285
"SUBJ-0028","Placebo",0,"Gastrointestinal disorders","Vomiting",1,"N","DOSE_REDUCTION","N",32
"SUBJ-0028","Placebo",0,"Blood and lymphatic system disorders","Anaemia",2,"N","NONE","N",39
"SUBJ-0028","Placebo",0,"Gastrointestinal disorders","Nausea",1,"N","NONE","N",109
"SUBJ-0028","Placebo",0,"Blood and lymphatic system disorders","Thrombocytopenia",2,"N","NONE","N",126
"SUBJ-0029","Placebo",0,"Blood and lymphatic system disorders","Neutropenia",3,"N","NONE","N",210
"SUBJ-0029","Placebo",0,"General disorders","Fatigue",2,"N","NONE","N",221
"SUBJ-0029","Placebo",0,"Nervous system disorders","Headache",1,"N","NONE","N",392
"SUBJ-0029","Placebo",0,"Skin and subcutaneous tissue disorders","Rash",1,"N","NONE","N",398
"SUBJ-0030","Placebo",0,"Skin and subcutaneous tissue disorders","Rash",1,"N","NONE","Y",196
"SUBJ-0030","Placebo",0,"Nervous system disorders","Headache",1,"N","NONE","N",241
"SUBJ-0030","Placebo",0,"Cardiac disorders","Atrial fibrillation",4,"Y","DOSE_REDUCTION","N",279
"SUBJ-0030","Placebo",0,"Metabolic disorders","Hypothyroidism",1,"N","NONE","Y",306
"SUBJ-0030","Placebo",0,"Skin and subcutaneous tissue disorders","Pruritus",2,"N","NONE","N",317
"SUBJ-0031","Placebo",0,"Respiratory disorders","Cough",3,"Y","NONE","N",155
"SUBJ-0031","Placebo",0,"General disorders","Fatigue",3,"N","DOSE_REDUCTION","N",175
"SUBJ-0032","Placebo",0,"Skin and subcutaneous tissue disorders","Pruritus",3,"Y","NONE","N",55
"SUBJ-0032","Placebo",0,"Cardiac disorders","QT prolongation",4,"Y","DRUG_WITHDRAWN","N",177
"SUBJ-0032","Placebo",0,"Gastrointestinal disorders","Nausea",1,"N","NONE","N",291
"SUBJ-0032","Placebo",0,"Blood and lymphatic system disorders","Thrombocytopenia",2,"N","NONE","N",358
"SUBJ-0032","Placebo",0,"Blood and lymphatic system disorders","Neutropenia",2,"N","DOSE_REDUCTION","N",452
"SUBJ-0033","Placebo",0,"Gastrointestinal disorders","Decreased appetite",3,"Y","DOSE_REDUCTION","N",55
"SUBJ-0033","Placebo",0,"Nervous system disorders","Peripheral neuropathy",1,"N","NONE","N",99
"SUBJ-0033","Placebo",0,"Respiratory disorders","Cough",1,"N","NONE","N",189
"SUBJ-0033","Placebo",0,"Blood and lymphatic system disorders","Neutropenia",2,"N","NONE","N",304
"SUBJ-0034","Placebo",0,"Blood and lymphatic system disorders","Anaemia",4,"Y","DRUG_WITHDRAWN","N",217
"SUBJ-0034","Placebo",0,"Gastrointestinal disorders","Nausea",2,"N","NONE","N",249
"SUBJ-0034","Placebo",0,"General disorders","Fatigue",3,"N","DOSE_REDUCTION","N",261
"SUBJ-0035","Placebo",0,"Gastrointestinal disorders","Decreased appetite",1,"N","NONE","N",135
"SUBJ-0035","Placebo",0,"Skin and subcutaneous tissue disorders","Rash",2,"N","NONE","N",141
"SUBJ-0035","Placebo",0,"Investigations","Blood bilirubin increased",1,"N","NONE","N",278
"SUBJ-0035","Placebo",0,"Metabolic disorders","Hypothyroidism",2,"N","NONE","N",356
"SUBJ-0037","Placebo",0,"General disorders","Pyrexia",1,"N","NONE","N",46
"SUBJ-0037","Placebo",0,"Gastrointestinal disorders","Decreased appetite",1,"N","NONE","N",62
"SUBJ-0037","Placebo",0,"General disorders","Fatigue",1,"N","NONE","N",112
"SUBJ-0037","Placebo",0,"Gastrointestinal disorders","Nausea",1,"N","NONE","N",239
"SUBJ-0038","Placebo",0,"Investigations","Aspartate aminotransferase increased",1,"N","NONE","N",147
"SUBJ-0038","Placebo",0,"Gastrointestinal disorders","Nausea",1,"N","NONE","N",227
"SUBJ-0038","Placebo",0,"General disorders","Fatigue",1,"N","NONE","N",307
"SUBJ-0039","Placebo",0,"General disorders","Pyrexia",1,"N","NONE","N",44
"SUBJ-0039","Placebo",0,"General disorders","Fatigue",2,"N","NONE","N",55
"SUBJ-0039","Placebo",0,"General disorders","Death",5,"Y","DRUG_WITHDRAWN","N",200
"SUBJ-0040","Placebo",0,"Gastrointestinal disorders","Diarrhoea",1,"N","NONE","Y",43
"SUBJ-0040","Placebo",0,"Gastrointestinal disorders","Decreased appetite",2,"N","NONE","N",70
"SUBJ-0040","Placebo",0,"Investigations","Aspartate aminotransferase increased",2,"N","DOSE_REDUCTION","N",233
"SUBJ-0040","Placebo",0,"Blood and lymphatic system disorders","Neutropenia",3,"Y","DRUG_WITHDRAWN","N",322
"SUBJ-0040","Placebo",0,"Blood and lymphatic system disorders","Thrombocytopenia",3,"N","DOSE_REDUCTION","N",416
"SUBJ-0041","Placebo",0,"Gastrointestinal disorders","Nausea",3,"N","DOSE_REDUCTION","N",132
"SUBJ-0041","Placebo",0,"Skin and subcutaneous tissue disorders","Rash",3,"Y","NONE","Y",167
"SUBJ-0041","Placebo",0,"Nervous system disorders","Headache",1,"N","NONE","N",409
"SUBJ-0042","Placebo",0,"Skin and subcutaneous tissue disorders","Pruritus",1,"N","DOSE_REDUCTION","Y",144
"SUBJ-0042","Placebo",0,"Metabolic disorders","Hypothyroidism",1,"N","NONE","N",336
"SUBJ-0043","Placebo",0,"General disorders","Fatigue",1,"N","NONE","N",366
"SUBJ-0043","Placebo",0,"Blood and lymphatic system disorders","Anaemia",2,"N","NONE","N",459
"SUBJ-0043","Placebo",0,"Metabolic disorders","Hypothyroidism",1,"N","NONE","N",465
"SUBJ-0044","Placebo",0,"General disorders","Fatigue",1,"N","NONE","N",149
"SUBJ-0044","Placebo",0,"Blood and lymphatic system disorders","Neutropenia",2,"N","NONE","N",297
"SUBJ-0045","Placebo",0,"Skin and subcutaneous tissue disorders","Pruritus",3,"Y","DOSE_REDUCTION","N",105
"SUBJ-0045","Placebo",0,"General disorders","Fatigue",1,"N","NONE","N",121
"SUBJ-0045","Placebo",0,"Blood and lymphatic system disorders","Thrombocytopenia",2,"N","DOSE_REDUCTION","N",207
"SUBJ-0046","Placebo",0,"Gastrointestinal disorders","Nausea",3,"Y","NONE","N",10
"SUBJ-0046","Placebo",0,"Gastrointestinal disorders","Diarrhoea",1,"N","NONE","N",38
"SUBJ-0046","Placebo",0,"Nervous system disorders","Headache",2,"N","NONE","N",121
"SUBJ-0046","Placebo",0,"General disorders","Pyrexia",3,"N","DOSE_REDUCTION","N",284
"SUBJ-0046","Placebo",0,"Skin and subcutaneous tissue disorders","Rash",1,"N","NONE","Y",429
"SUBJ-0047","Placebo",0,"Gastrointestinal disorders","Vomiting",1,"N","NONE","N",116
"SUBJ-0047","Placebo",0,"Investigations","Alanine aminotransferase increased",1,"N","DOSE_REDUCTION","Y",145
"SUBJ-0047","Placebo",0,"Investigations","Aspartate aminotransferase increased",1,"N","NONE","N",168
"SUBJ-0047","Placebo",0,"Renal and urinary disorders","Acute kidney injury",4,"Y","DRUG_WITHDRAWN","N",247
"SUBJ-0047","Placebo",0,"Gastrointestinal disorders","Nausea",2,"N","NONE","N",255
"SUBJ-0047","Placebo",0,"Gastrointestinal disorders","Diarrhoea",2,"N","NONE","N",286
"SUBJ-0047","Placebo",0,"Blood and lymphatic system disorders","Neutropenia",2,"N","NONE","N",307
"SUBJ-0048","Placebo",0,"General disorders","Death",5,"Y","DRUG_WITHDRAWN","N",555
"SUBJ-0049","Placebo",0,"Investigations","Aspartate aminotransferase increased",3,"Y","DRUG_WITHDRAWN","N",88
"SUBJ-0050","Placebo",0,"Nervous system disorders","Peripheral neuropathy",2,"N","NONE","N",76
"SUBJ-0050","Placebo",0,"Blood and lymphatic system disorders","Anaemia",2,"N","NONE","N",238
"SUBJ-0050","Placebo",0,"Gastrointestinal disorders","Diarrhoea",3,"N","DOSE_REDUCTION","N",341
"SUBJ-0051","Placebo",0,"Gastrointestinal disorders","Diarrhoea",1,"N","NONE","N",90
"SUBJ-0051","Placebo",0,"Nervous system disorders","Peripheral neuropathy",2,"N","NONE","N",356
"SUBJ-0051","Placebo",0,"Gastrointestinal disorders","Nausea",1,"N","NONE","N",368
"SUBJ-0052","Placebo",0,"Metabolic disorders","Hypothyroidism",1,"N","NONE","N",269
"SUBJ-0053","Placebo",0,"General disorders","Fatigue",3,"N","NONE","N",299
"SUBJ-0053","Placebo",0,"Gastrointestinal disorders","Decreased appetite",2,"N","NONE","N",352
"SUBJ-0053","Placebo",0,"Investigations","Blood bilirubin increased",3,"Y","NONE","N",397
"SUBJ-0053","Placebo",0,"Gastrointestinal disorders","Diarrhoea",1,"N","NONE","N",459
"SUBJ-0054","Placebo",0,"Nervous system disorders","Headache",3,"Y","DOSE_REDUCTION","N",204
"SUBJ-0054","Placebo",0,"Gastrointestinal disorders","Decreased appetite",2,"N","NONE","N",274
"SUBJ-0054","Placebo",0,"Cardiac disorders","QT prolongation",3,"N","NONE","N",302
"SUBJ-0054","Placebo",0,"Investigations","Aspartate aminotransferase increased",1,"N","DOSE_REDUCTION","Y",425
"SUBJ-0054","Placebo",0,"Gastrointestinal disorders","Nausea",1,"N","NONE","N",458
"SUBJ-0054","Placebo",0,"General disorders","Death",5,"Y","DRUG_WITHDRAWN","N",483
"SUBJ-0055","Placebo",0,"Skin and subcutaneous tissue disorders","Rash",1,"N","NONE","N",258
"SUBJ-0056","Placebo",0,"Gastrointestinal disorders","Vomiting",1,"N","NONE","N",65
"SUBJ-0056","Placebo",0,"Blood and lymphatic system disorders","Neutropenia",2,"N","NONE","N",284
"SUBJ-0057","Placebo",0,"Gastrointestinal disorders","Nausea",3,"N","NONE","N",9
"SUBJ-0057","Placebo",0,"Investigations","Aspartate aminotransferase increased",2,"N","NONE","Y",79
"SUBJ-0057","Placebo",0,"General disorders","Fatigue",3,"Y","NONE","N",271
"SUBJ-0057","Placebo",0,"Skin and subcutaneous tissue disorders","Pruritus",1,"N","NONE","N",306
"SUBJ-0058","Placebo",0,"Blood and lymphatic system disorders","Anaemia",2,"N","NONE","N",6
"SUBJ-0058","Placebo",0,"Gastrointestinal disorders","Nausea",1,"N","NONE","N",28
"SUBJ-0058","Placebo",0,"Gastrointestinal disorders","Diarrhoea",1,"N","NONE","N",72
"SUBJ-0058","Placebo",0,"General disorders","Fatigue",3,"N","NONE","N",101
"SUBJ-0058","Placebo",0,"Investigations","Alanine aminotransferase increased",3,"Y","NONE","Y",107
"SUBJ-0059","Placebo",0,"Skin and subcutaneous tissue disorders","Rash",1,"N","NONE","N",3
"SUBJ-0059","Placebo",0,"Investigations","Blood bilirubin increased",1,"N","NONE","N",20
"SUBJ-0059","Placebo",0,"Gastrointestinal disorders","Diarrhoea",1,"N","NONE","N",57
"SUBJ-0059","Placebo",0,"Skin and subcutaneous tissue disorders","Pruritus",3,"Y","NONE","N",87
"SUBJ-0059","Placebo",0,"Respiratory disorders","Cough",1,"N","NONE","N",102
"SUBJ-0059","Placebo",0,"Blood and lymphatic system disorders","Thrombocytopenia",2,"N","NONE","N",145
"SUBJ-0060","Placebo",0,"Skin and subcutaneous tissue disorders","Pruritus",2,"N","DOSE_REDUCTION","N",33
"SUBJ-0060","Placebo",0,"General disorders","Fatigue",2,"N","NONE","N",128
"SUBJ-0060","Placebo",0,"Gastrointestinal disorders","Vomiting",1,"N","DOSE_REDUCTION","N",168
"SUBJ-0060","Placebo",0,"Gastrointestinal disorders","Decreased appetite",3,"Y","DOSE_REDUCTION","N",175
"SUBJ-0060","Placebo",0,"Gastrointestinal disorders","Diarrhoea",1,"N","NONE","N",232
"SUBJ-0060","Placebo",0,"General disorders","Death",5,"Y","DRUG_WITHDRAWN","N",282
"SUBJ-0061","Placebo",0,"Skin and subcutaneous tissue disorders","Rash",3,"Y","DOSE_REDUCTION","N",99
"SUBJ-0061","Placebo",0,"Blood and lymphatic system disorders","Thrombocytopenia",4,"Y","DRUG_WITHDRAWN","N",172
"SUBJ-0062","Placebo",0,"Gastrointestinal disorders","Nausea",1,"N","NONE","N",13
"SUBJ-0062","Placebo",0,"Gastrointestinal disorders","Diarrhoea",2,"N","DOSE_REDUCTION","N",198
"SUBJ-0062","Placebo",0,"General disorders","Fatigue",1,"N","NONE","N",243
"SUBJ-0062","Placebo",0,"Blood and lymphatic system disorders","Neutropenia",3,"N","NONE","N",301
"SUBJ-0062","Placebo",0,"Skin and subcutaneous tissue disorders","Pruritus",3,"N","NONE","N",396
"SUBJ-0062","Placebo",0,"Blood and lymphatic system disorders","Thrombocytopenia",2,"N","NONE","N",402
"SUBJ-0062","Placebo",0,"General disorders","Death",5,"Y","DRUG_WITHDRAWN","N",442
"SUBJ-0063","Placebo",0,"Blood and lymphatic system disorders","Anaemia",2,"N","NONE","N",149
"SUBJ-0063","Placebo",0,"Metabolic disorders","Hypothyroidism",1,"N","NONE","N",336
"SUBJ-0063","Placebo",0,"Investigations","Aspartate aminotransferase increased",1,"N","NONE","N",443
"SUBJ-0064","Placebo",0,"General disorders","Fatigue",2,"N","NONE","N",54
"SUBJ-0064","Placebo",0,"Gastrointestinal disorders","Diarrhoea",2,"N","NONE","N",356
"SUBJ-0064","Placebo",0,"Blood and lymphatic system disorders","Thrombocytopenia",2,"N","NONE","N",411
"SUBJ-0064","Placebo",0,"Investigations","Aspartate aminotransferase increased",2,"N","NONE","N",507
"SUBJ-0065","Placebo",0,"Gastrointestinal disorders","Decreased appetite",2,"N","NONE","N",33
"SUBJ-0065","Placebo",0,"Gastrointestinal disorders","Diarrhoea",1,"N","NONE","Y",251
"SUBJ-0065","Placebo",0,"Investigations","Alanine aminotransferase increased",1,"N","NONE","N",258
"SUBJ-0066","Placebo",0,"Investigations","Blood bilirubin increased",1,"N","DOSE_REDUCTION","N",318
"SUBJ-0066","Placebo",0,"Nervous system disorders","Headache",1,"N","NONE","N",486
"SUBJ-0067","Placebo",0,"General disorders","Fatigue",1,"N","NONE","N",15
"SUBJ-0067","Placebo",0,"Investigations","Blood bilirubin increased",1,"N","NONE","N",194
"SUBJ-0067","Placebo",0,"Hepatobiliary disorders","Drug-induced liver injury",4,"Y","DOSE_REDUCTION","N",390
"SUBJ-0068","Placebo",0,"Gastrointestinal disorders","Nausea",3,"N","NONE","N",168
"SUBJ-0068","Placebo",0,"Skin and subcutaneous tissue disorders","Rash",2,"N","NONE","N",251
"SUBJ-0068","Placebo",0,"Gastrointestinal disorders","Diarrhoea",1,"N","NONE","N",295
"SUBJ-0068","Placebo",0,"General disorders","Fatigue",1,"N","NONE","N",302
"SUBJ-0068","Placebo",0,"Blood and lymphatic system disorders","Thrombocytopenia",4,"Y","DRUG_WITHDRAWN","N",421
"SUBJ-0068","Placebo",0,"Metabolic disorders","Hypothyroidism",1,"N","NONE","Y",507
"SUBJ-0069","Placebo",0,"Gastrointestinal disorders","Nausea",1,"N","NONE","N",422
"SUBJ-0069","Placebo",0,"Blood and lymphatic system disorders","Anaemia",3,"N","DOSE_REDUCTION","N",462
"SUBJ-0070","Placebo",0,"Skin and subcutaneous tissue disorders","Pruritus",2,"N","NONE","Y",32
"SUBJ-0070","Placebo",0,"General disorders","Fatigue",1,"N","NONE","N",207
"SUBJ-0070","Placebo",0,"Gastrointestinal disorders","Decreased appetite",1,"N","NONE","N",248
"SUBJ-0071","Placebo",0,"General disorders","Fatigue",2,"N","NONE","N",289
"SUBJ-0072","Placebo",0,"Gastrointestinal disorders","Vomiting",2,"N","DOSE_REDUCTION","N",32
"SUBJ-0072","Placebo",0,"Blood and lymphatic system disorders","Thrombocytopenia",4,"Y","DRUG_WITHDRAWN","N",90
"SUBJ-0072","Placebo",0,"Cardiac disorders","Atrial fibrillation",2,"N","NONE","N",96
"SUBJ-0072","Placebo",0,"Renal and urinary disorders","Acute kidney injury",3,"N","NONE","N",233
"SUBJ-0072","Placebo",0,"General disorders","Fatigue",1,"N","NONE","N",290
"SUBJ-0072","Placebo",0,"Nervous system disorders","Headache",2,"N","NONE","N",354
"SUBJ-0073","Placebo",0,"Gastrointestinal disorders","Nausea",1,"N","NONE","N",151
"SUBJ-0073","Placebo",0,"Gastrointestinal disorders","Vomiting",1,"N","NONE","N",240
"SUBJ-0073","Placebo",0,"General disorders","Fatigue",2,"N","NONE","N",375
"SUBJ-0074","Placebo",0,"Investigations","Aspartate aminotransferase increased",3,"N","DRUG_WITHDRAWN","N",58
"SUBJ-0074","Placebo",0,"Gastrointestinal disorders","Diarrhoea",1,"N","NONE","N",111
"SUBJ-0074","Placebo",0,"Skin and subcutaneous tissue disorders","Rash",1,"N","NONE","Y",157
"SUBJ-0074","Placebo",0,"Investigations","Alanine aminotransferase increased",1,"N","NONE","N",309
"SUBJ-0075","Placebo",0,"General disorders","Fatigue",2,"N","NONE","N",51
"SUBJ-0075","Placebo",0,"Gastrointestinal disorders","Vomiting",1,"N","NONE","N",139
"SUBJ-0076","Placebo",0,"Gastrointestinal disorders","Nausea",2,"N","NONE","N",143
"SUBJ-0076","Placebo",0,"Blood and lymphatic system disorders","Thrombocytopenia",2,"N","NONE","N",285
"SUBJ-0076","Placebo",0,"Skin and subcutaneous tissue disorders","Rash",1,"N","NONE","Y",448
"SUBJ-0077","Placebo",0,"Gastrointestinal disorders","Vomiting",2,"N","NONE","N",175
"SUBJ-0077","Placebo",0,"Blood and lymphatic system disorders","Anaemia",2,"N","NONE","N",201
"SUBJ-0077","Placebo",0,"Investigations","Blood bilirubin increased",1,"N","DOSE_REDUCTION","N",337
"SUBJ-0077","Placebo",0,"Gastrointestinal disorders","Decreased appetite",1,"N","NONE","N",371
"SUBJ-0078","Placebo",0,"Gastrointestinal disorders","Diarrhoea",1,"N","NONE","N",343
"SUBJ-0079","Placebo",0,"Gastrointestinal disorders","Nausea",1,"N","NONE","N",81
"SUBJ-0079","Placebo",0,"Gastrointestinal disorders","Decreased appetite",1,"N","DOSE_REDUCTION","N",87
"SUBJ-0080","Placebo",0,"General disorders","Death",5,"Y","DRUG_WITHDRAWN","N",326
"SUBJ-0081","Placebo",0,"Gastrointestinal disorders","Decreased appetite",2,"N","NONE","N",53
"SUBJ-0081","Placebo",0,"General disorders","Fatigue",2,"N","NONE","N",88
"SUBJ-0082","Placebo",0,"General disorders","Fatigue",2,"N","NONE","N",78
"SUBJ-0082","Placebo",0,"Nervous system disorders","Peripheral neuropathy",1,"N","NONE","N",94
"SUBJ-0082","Placebo",0,"Gastrointestinal disorders","Vomiting",2,"N","NONE","N",198
"SUBJ-0082","Placebo",0,"Skin and subcutaneous tissue disorders","Pruritus",1,"N","NONE","N",261
"SUBJ-0083","Placebo",0,"General disorders","Fatigue",1,"N","NONE","N",134
"SUBJ-0083","Placebo",0,"Gastrointestinal disorders","Nausea",2,"N","NONE","N",307
"SUBJ-0083","Placebo",0,"Respiratory disorders","Cough",2,"N","NONE","N",360
"SUBJ-0084","Placebo",0,"Nervous system disorders","Headache",2,"N","NONE","N",128
"SUBJ-0084","Placebo",0,"Investigations","Alanine aminotransferase increased",2,"N","NONE","N",339
"SUBJ-0085","Placebo",0,"General disorders","Pyrexia",2,"N","NONE","N",11
"SUBJ-0085","Placebo",0,"Blood and lymphatic system disorders","Anaemia",2,"N","NONE","N",12
"SUBJ-0086","Placebo",0,"Gastrointestinal disorders","Nausea",3,"Y","DRUG_WITHDRAWN","N",416
"SUBJ-0087","Placebo",0,"Respiratory disorders","Cough",3,"N","DOSE_REDUCTION","N",27
"SUBJ-0087","Placebo",0,"Metabolic disorders","Hypothyroidism",2,"N","NONE","N",99
"SUBJ-0087","Placebo",0,"Gastrointestinal disorders","Diarrhoea",1,"N","DOSE_REDUCTION","Y",102
"SUBJ-0088","Placebo",0,"Gastrointestinal disorders","Decreased appetite",3,"N","DRUG_WITHDRAWN","N",83
"SUBJ-0088","Placebo",0,"Blood and lymphatic system disorders","Thrombocytopenia",4,"Y","DRUG_WITHDRAWN","N",84
"SUBJ-0088","Placebo",0,"Nervous system disorders","Headache",1,"N","NONE","N",157
"SUBJ-0088","Placebo",0,"Blood and lymphatic system disorders","Neutropenia",4,"Y","DRUG_WITHDRAWN","N",209
"SUBJ-0088","Placebo",0,"Blood and lymphatic system disorders","Anaemia",2,"N","NONE","N",260
"SUBJ-0088","Placebo",0,"Gastrointestinal disorders","Nausea",3,"Y","NONE","N",359
"SUBJ-0090","Placebo",0,"General disorders","Pyrexia",1,"N","NONE","N",154
"SUBJ-0090","Placebo",0,"Gastrointestinal disorders","Nausea",1,"N","NONE","N",444
"SUBJ-0090","Placebo",0,"Skin and subcutaneous tissue disorders","Rash",2,"N","NONE","Y",476
"SUBJ-0091","Placebo",0,"Investigations","Blood bilirubin increased",1,"N","NONE","N",337
"SUBJ-0091","Placebo",0,"Investigations","Alanine aminotransferase increased",2,"N","NONE","N",354
"SUBJ-0091","Placebo",0,"Gastrointestinal disorders","Decreased appetite",3,"Y","NONE","N",384
"SUBJ-0092","Placebo",0,"Nervous system disorders","Headache",1,"N","NONE","N",243
"SUBJ-0093","Placebo",0,"Nervous system disorders","Headache",1,"N","NONE","N",321
"SUBJ-0093","Placebo",0,"General disorders","Pyrexia",1,"N","NONE","N",434
"SUBJ-0093","Placebo",0,"Hepatobiliary disorders","Drug-induced liver injury",4,"Y","DOSE_REDUCTION","N",443
"SUBJ-0094","Placebo",0,"Blood and lymphatic system disorders","Anaemia",2,"N","NONE","N",144
"SUBJ-0094","Placebo",0,"Gastrointestinal disorders","Diarrhoea",2,"N","NONE","Y",149
"SUBJ-0094","Placebo",0,"General disorders","Fatigue",1,"N","NONE","N",208
"SUBJ-0094","Placebo",0,"Skin and subcutaneous tissue disorders","Pruritus",2,"N","NONE","Y",375
"SUBJ-0095","Placebo",0,"General disorders","Pyrexia",1,"N","DOSE_REDUCTION","N",144
"SUBJ-0095","Placebo",0,"Gastrointestinal disorders","Nausea",1,"N","NONE","N",223
"SUBJ-0096","Placebo",0,"General disorders","Fatigue",1,"N","NONE","N",82
"SUBJ-0098","Placebo",0,"Nervous system disorders","Headache",3,"N","NONE","N",42
"SUBJ-0098","Placebo",0,"Nervous system disorders","Peripheral neuropathy",3,"Y","DRUG_WITHDRAWN","N",210
"SUBJ-0099","Placebo",0,"Blood and lymphatic system disorders","Thrombocytopenia",4,"Y","DRUG_WITHDRAWN","N",268
"SUBJ-0100","Placebo",0,"Gastrointestinal disorders","Nausea",1,"N","NONE","N",52
"SUBJ-0100","Placebo",0,"General disorders","Pyrexia",1,"N","NONE","N",64
"SUBJ-0100","Placebo",0,"Investigations","Alanine aminotransferase increased",1,"N","NONE","Y",143
"SUBJ-0100","Placebo",0,"Skin and subcutaneous tissue disorders","Pruritus",1,"N","NONE","N",212
"SUBJ-0100","Placebo",0,"Investigations","Aspartate aminotransferase increased",3,"Y","DOSE_REDUCTION","N",408
"SUBJ-0101","Placebo",0,"General disorders","Pyrexia",3,"Y","DOSE_REDUCTION","N",221
"SUBJ-0102","Placebo",0,"Gastrointestinal disorders","Nausea",2,"N","NONE","N",202
"SUBJ-0102","Placebo",0,"General disorders","Fatigue",1,"N","NONE","N",257
"SUBJ-0103","Placebo",0,"Blood and lymphatic system disorders","Neutropenia",4,"Y","DOSE_REDUCTION","N",179
"SUBJ-0104","Placebo",0,"Nervous system disorders","Headache",2,"N","NONE","N",167
"SUBJ-0104","Placebo",0,"Blood and lymphatic system disorders","Anaemia",4,"Y","DRUG_WITHDRAWN","N",361
"SUBJ-0105","Placebo",0,"Nervous system disorders","Headache",2,"N","NONE","N",29
"SUBJ-0106","Placebo",0,"Skin and subcutaneous tissue disorders","Rash",1,"N","NONE","N",7
"SUBJ-0106","Placebo",0,"Gastrointestinal disorders","Decreased appetite",1,"N","NONE","N",41
"SUBJ-0106","Placebo",0,"Gastrointestinal disorders","Diarrhoea",3,"N","NONE","N",98
"SUBJ-0106","Placebo",0,"Gastrointestinal disorders","Nausea",1,"N","DOSE_REDUCTION","N",129
"SUBJ-0107","Placebo",0,"General disorders","Pyrexia",1,"N","NONE","N",50
"SUBJ-0107","Placebo",0,"Nervous system disorders","Headache",1,"N","NONE","N",86
"SUBJ-0107","Placebo",0,"Gastrointestinal disorders","Vomiting",2,"N","DOSE_REDUCTION","N",89
"SUBJ-0107","Placebo",0,"Gastrointestinal disorders","Decreased appetite",2,"N","DOSE_REDUCTION","N",101
"SUBJ-0107","Placebo",0,"Blood and lymphatic system disorders","Neutropenia",2,"N","NONE","N",251
"SUBJ-0107","Placebo",0,"General disorders","Fatigue",2,"N","NONE","N",370
"SUBJ-0108","Placebo",0,"Skin and subcutaneous tissue disorders","Rash",1,"N","NONE","N",16
"SUBJ-0108","Placebo",0,"Gastrointestinal disorders","Vomiting",1,"N","NONE","N",110
"SUBJ-0108","Placebo",0,"General disorders","Fatigue",1,"N","NONE","N",269
"SUBJ-0108","Placebo",0,"Gastrointestinal disorders","Nausea",1,"N","NONE","N",314
"SUBJ-0109","Placebo",0,"Blood and lymphatic system disorders","Neutropenia",2,"N","NONE","N",152
"SUBJ-0109","Placebo",0,"Gastrointestinal disorders","Nausea",2,"N","NONE","N",170
"SUBJ-0109","Placebo",0,"Investigations","Blood bilirubin increased",1,"N","NONE","N",245
"SUBJ-0109","Placebo",0,"Gastrointestinal disorders","Diarrhoea",2,"N","NONE","N",384
"SUBJ-0110","Placebo",0,"Blood and lymphatic system disorders","Neutropenia",4,"Y","DRUG_WITHDRAWN","N",5
"SUBJ-0110","Placebo",0,"Gastrointestinal disorders","Nausea",2,"N","NONE","N",141
"SUBJ-0110","Placebo",0,"Nervous system disorders","Headache",3,"Y","DRUG_WITHDRAWN","N",330
"SUBJ-0110","Placebo",0,"Gastrointestinal disorders","Vomiting",1,"N","NONE","N",350
"SUBJ-0111","Placebo",0,"Blood and lymphatic system disorders","Anaemia",2,"N","NONE","N",37
"SUBJ-0111","Placebo",0,"General disorders","Fatigue",2,"N","NONE","N",47
"SUBJ-0111","Placebo",0,"Skin and subcutaneous tissue disorders","Pruritus",3,"N","NONE","N",69
"SUBJ-0111","Placebo",0,"Gastrointestinal disorders","Vomiting",2,"N","NONE","N",112
"SUBJ-0111","Placebo",0,"Respiratory disorders","Cough",1,"N","NONE","N",140
"SUBJ-0112","Placebo",0,"Metabolic disorders","Hypothyroidism",3,"Y","NONE","N",39
"SUBJ-0113","Placebo",0,"Gastrointestinal disorders","Diarrhoea",1,"N","NONE","N",39
"SUBJ-0113","Placebo",0,"Gastrointestinal disorders","Nausea",2,"N","NONE","N",104
"SUBJ-0113","Placebo",0,"Nervous system disorders","Headache",2,"N","NONE","N",113
"SUBJ-0114","Placebo",0,"Blood and lymphatic system disorders","Anaemia",2,"N","NONE","N",45
"SUBJ-0114","Placebo",0,"Gastrointestinal disorders","Decreased appetite",1,"N","NONE","N",115
"SUBJ-0115","Placebo",0,"Gastrointestinal disorders","Vomiting",1,"N","NONE","N",142
"SUBJ-0115","Placebo",0,"General disorders","Pyrexia",2,"N","DOSE_REDUCTION","N",168
"SUBJ-0116","Placebo",0,"Gastrointestinal disorders","Diarrhoea",2,"N","NONE","Y",65
"SUBJ-0116","Placebo",0,"Respiratory disorders","Cough",2,"N","NONE","N",209
"SUBJ-0116","Placebo",0,"Gastrointestinal disorders","Nausea",2,"N","NONE","N",270
"SUBJ-0116","Placebo",0,"Gastrointestinal disorders","Decreased appetite",1,"N","NONE","N",375
"SUBJ-0117","Placebo",0,"General disorders","Fatigue",1,"N","NONE","N",26
"SUBJ-0117","Placebo",0,"Gastrointestinal disorders","Nausea",1,"N","DOSE_REDUCTION","N",27
"SUBJ-0117","Placebo",0,"Gastrointestinal disorders","Decreased appetite",2,"N","DOSE_REDUCTION","N",52
"SUBJ-0117","Placebo",0,"Blood and lymphatic system disorders","Thrombocytopenia",2,"N","NONE","N",54
"SUBJ-0117","Placebo",0,"Blood and lymphatic system disorders","Anaemia",3,"Y","NONE","N",56
"SUBJ-0118","Placebo",0,"Skin and subcutaneous tissue disorders","Rash",1,"N","NONE","Y",303
"SUBJ-0118","Placebo",0,"Gastrointestinal disorders","Decreased appetite",2,"N","NONE","N",502
"SUBJ-0119","Placebo",0,"Gastrointestinal disorders","Nausea",1,"N","NONE","N",35
"SUBJ-0119","Placebo",0,"Investigations","Alanine aminotransferase increased",1,"N","NONE","N",183
"SUBJ-0120","Placebo",0,"Gastrointestinal disorders","Vomiting",2,"N","NONE","N",38
"SUBJ-0120","Placebo",0,"Gastrointestinal disorders","Decreased appetite",3,"Y","DRUG_WITHDRAWN","N",102
"SUBJ-0120","Placebo",0,"Skin and subcutaneous tissue disorders","Rash",1,"N","NONE","N",146
"SUBJ-0120","Placebo",0,"Gastrointestinal disorders","Nausea",2,"N","NONE","N",358
"SUBJ-0121","Placebo",0,"Gastrointestinal disorders","Decreased appetite",1,"N","NONE","N",194
"SUBJ-0121","Placebo",0,"General disorders","Fatigue",2,"N","NONE","N",249
"SUBJ-0121","Placebo",0,"Gastrointestinal disorders","Diarrhoea",1,"N","NONE","N",250
"SUBJ-0123","Placebo",0,"Gastrointestinal disorders","Decreased appetite",1,"N","NONE","N",3
"SUBJ-0123","Placebo",0,"Hepatobiliary disorders","Drug-induced liver injury",3,"N","NONE","N",4
"SUBJ-0123","Placebo",0,"Nervous system disorders","Headache",1,"N","NONE","N",51
"SUBJ-0123","Placebo",0,"General disorders","Pyrexia",3,"Y","DOSE_REDUCTION","N",208
"SUBJ-0124","Placebo",0,"Skin and subcutaneous tissue disorders","Pruritus",2,"N","NONE","N",38
"SUBJ-0124","Placebo",0,"Gastrointestinal disorders","Vomiting",1,"N","DOSE_REDUCTION","N",186
"SUBJ-0125","Placebo",0,"Respiratory disorders","Cough",2,"N","NONE","N",99
"SUBJ-0125","Placebo",0,"Gastrointestinal disorders","Decreased appetite",1,"N","NONE","N",253
"SUBJ-0125","Placebo",0,"General disorders","Fatigue",1,"N","NONE","N",364
"SUBJ-0126","Placebo",0,"Skin and subcutaneous tissue disorders","Rash",3,"N","DOSE_REDUCTION","Y",47
"SUBJ-0126","Placebo",0,"Gastrointestinal disorders","Decreased appetite",2,"N","NONE","N",56
"SUBJ-0126","Placebo",0,"Gastrointestinal disorders","Nausea",2,"N","NONE","N",57
"SUBJ-0126","Placebo",0,"Nervous system disorders","Headache",1,"N","NONE","N",114
"SUBJ-0126","Placebo",0,"Nervous system disorders","Peripheral neuropathy",2,"N","NONE","N",146
"SUBJ-0127","Placebo",0,"Respiratory disorders","Cough",3,"Y","NONE","N",45
"SUBJ-0128","Placebo",0,"Renal and urinary disorders","Acute kidney injury",2,"N","NONE","N",130
"SUBJ-0128","Placebo",0,"Blood and lymphatic system disorders","Thrombocytopenia",4,"Y","DRUG_WITHDRAWN","N",135
"SUBJ-0129","Placebo",0,"Nervous system disorders","Headache",2,"N","NONE","N",292
"SUBJ-0130","Placebo",0,"General disorders","Fatigue",1,"N","NONE","N",312
"SUBJ-0130","Placebo",0,"Gastrointestinal disorders","Decreased appetite",3,"Y","DRUG_WITHDRAWN","N",426
"SUBJ-0131","Placebo",0,"Gastrointestinal disorders","Nausea",1,"N","NONE","N",218
"SUBJ-0131","Placebo",0,"General disorders","Fatigue",1,"N","NONE","N",294
"SUBJ-0132","Placebo",0,"Respiratory disorders","Cough",3,"Y","NONE","N",41
"SUBJ-0132","Placebo",0,"Gastrointestinal disorders","Diarrhoea",1,"N","NONE","Y",78
"SUBJ-0132","Placebo",0,"Gastrointestinal disorders","Nausea",3,"N","DOSE_REDUCTION","N",93
"SUBJ-0132","Placebo",0,"General disorders","Fatigue",1,"N","NONE","N",97
"SUBJ-0133","Placebo",0,"Blood and lymphatic system disorders","Thrombocytopenia",2,"N","NONE","N",4
"SUBJ-0133","Placebo",0,"Blood and lymphatic system disorders","Neutropenia",2,"N","NONE","N",97
"SUBJ-0133","Placebo",0,"Respiratory disorders","Cough",2,"N","NONE","N",135
"SUBJ-0133","Placebo",0,"Investigations","Aspartate aminotransferase increased",1,"N","NONE","N",194
"SUBJ-0133","Placebo",0,"Blood and lymphatic system disorders","Anaemia",2,"N","NONE","N",215
"SUBJ-0133","Placebo",0,"General disorders","Fatigue",2,"N","NONE","N",247
"SUBJ-0133","Placebo",0,"General disorders","Death",5,"Y","DRUG_WITHDRAWN","N",266
"SUBJ-0135","Placebo",0,"General disorders","Fatigue",1,"N","NONE","N",257
"SUBJ-0135","Placebo",0,"General disorders","Pyrexia",2,"N","NONE","N",280
"SUBJ-0136","Placebo",0,"General disorders","Pyrexia",2,"N","NONE","N",260
"SUBJ-0136","Placebo",0,"Nervous system disorders","Headache",1,"N","NONE","N",298
"SUBJ-0137","Placebo",0,"Investigations","Aspartate aminotransferase increased",2,"N","NONE","N",57
"SUBJ-0137","Placebo",0,"Nervous system disorders","Headache",2,"N","DOSE_REDUCTION","N",264
"SUBJ-0138","Placebo",0,"Gastrointestinal disorders","Decreased appetite",3,"Y","DOSE_REDUCTION","N",95
"SUBJ-0139","Placebo",0,"General disorders","Death",5,"Y","DRUG_WITHDRAWN","N",383
"SUBJ-0140","Placebo",0,"Gastrointestinal disorders","Nausea",2,"N","NONE","N",56
"SUBJ-0140","Placebo",0,"General disorders","Fatigue",2,"N","NONE","N",113
"SUBJ-0140","Placebo",0,"Blood and lymphatic system disorders","Anaemia",2,"N","DOSE_REDUCTION","N",120
"SUBJ-0140","Placebo",0,"Nervous system disorders","Headache",1,"N","NONE","N",318
"SUBJ-0141","Placebo",0,"Cardiac disorders","QT prolongation",2,"N","NONE","N",42
"SUBJ-0141","Placebo",0,"Nervous system disorders","Peripheral neuropathy",2,"N","NONE","N",150
"SUBJ-0141","Placebo",0,"Gastrointestinal disorders","Decreased appetite",1,"N","NONE","N",251
"SUBJ-0141","Placebo",0,"Nervous system disorders","Headache",1,"N","DOSE_REDUCTION","N",311
"SUBJ-0142","Placebo",0,"Gastrointestinal disorders","Nausea",2,"N","NONE","N",64
"SUBJ-0142","Placebo",0,"Gastrointestinal disorders","Decreased appetite",1,"N","NONE","N",223
"SUBJ-0142","Placebo",0,"General disorders","Fatigue",2,"N","DOSE_REDUCTION","N",266
"SUBJ-0142","Placebo",0,"Nervous system disorders","Headache",2,"N","DOSE_REDUCTION","N",288
"SUBJ-0143","Placebo",0,"Gastrointestinal disorders","Vomiting",1,"N","NONE","N",24
"SUBJ-0143","Placebo",0,"Blood and lymphatic system disorders","Anaemia",2,"N","NONE","N",82
"SUBJ-0143","Placebo",0,"Nervous system disorders","Headache",1,"N","NONE","N",96
"SUBJ-0143","Placebo",0,"Investigations","Alanine aminotransferase increased",1,"N","NONE","Y",192
"SUBJ-0143","Placebo",0,"General disorders","Fatigue",1,"N","NONE","N",270
"SUBJ-0143","Placebo",0,"Gastrointestinal disorders","Nausea",1,"N","NONE","N",284
"SUBJ-0143","Placebo",0,"Respiratory disorders","Cough",1,"N","NONE","N",337
"SUBJ-0143","Placebo",0,"General disorders","Pyrexia",3,"Y","NONE","N",372
"SUBJ-0144","Placebo",0,"General disorders","Fatigue",1,"N","NONE","N",50
"SUBJ-0144","Placebo",0,"Gastrointestinal disorders","Diarrhoea",3,"Y","NONE","N",107
"SUBJ-0144","Placebo",0,"Investigations","Alanine aminotransferase increased",3,"Y","NONE","N",182
"SUBJ-0144","Placebo",0,"Gastrointestinal disorders","Nausea",1,"N","NONE","N",267
"SUBJ-0144","Placebo",0,"Blood and lymphatic system disorders","Neutropenia",2,"N","NONE","N",366
"SUBJ-0145","Placebo",0,"Gastrointestinal disorders","Diarrhoea",1,"N","NONE","N",37
"SUBJ-0146","Placebo",0,"Nervous system disorders","Headache",2,"N","DOSE_REDUCTION","N",280
"SUBJ-0146","Placebo",0,"Metabolic disorders","Hypothyroidism",1,"N","NONE","Y",350
"SUBJ-0147","Placebo",0,"Gastrointestinal disorders","Diarrhoea",2,"N","NONE","N",318
"SUBJ-0148","Placebo",0,"General disorders","Fatigue",2,"N","DOSE_REDUCTION","N",170
"SUBJ-0148","Placebo",0,"Gastrointestinal disorders","Nausea",2,"N","NONE","N",193
"SUBJ-0148","Placebo",0,"Skin and subcutaneous tissue disorders","Rash",1,"N","NONE","N",193
"SUBJ-0148","Placebo",0,"General disorders","Pyrexia",1,"N","NONE","N",319
"SUBJ-0149","Placebo",0,"Metabolic disorders","Hypothyroidism",1,"N","NONE","Y",4
"SUBJ-0149","Placebo",0,"Gastrointestinal disorders","Decreased appetite",1,"N","NONE","N",356
"SUBJ-0149","Placebo",0,"Nervous system disorders","Headache",2,"N","NONE","N",387
"SUBJ-0149","Placebo",0,"Investigations","Alanine aminotransferase increased",3,"Y","DOSE_REDUCTION","Y",387
"SUBJ-0149","Placebo",0,"Respiratory disorders","Cough",2,"N","DOSE_REDUCTION","N",445
"SUBJ-0150","Placebo",0,"Gastrointestinal disorders","Nausea",2,"N","NONE","N",68
"SUBJ-0150","Placebo",0,"Respiratory disorders","Cough",1,"N","NONE","N",86
"SUBJ-0150","Placebo",0,"Blood and lymphatic system disorders","Anaemia",3,"Y","NONE","N",150
"SUBJ-0150","Placebo",0,"Gastrointestinal disorders","Vomiting",2,"N","NONE","N",202
"SUBJ-0150","Placebo",0,"General disorders","Pyrexia",1,"N","NONE","N",241
"SUBJ-0150","Placebo",0,"General disorders","Fatigue",1,"N","NONE","N",304
"SUBJ-0151","Placebo",0,"Nervous system disorders","Headache",2,"N","NONE","N",94
"SUBJ-0151","Placebo",0,"Blood and lymphatic system disorders","Thrombocytopenia",3,"N","DOSE_REDUCTION","N",166
"SUBJ-0151","Placebo",0,"Respiratory disorders","Cough",2,"N","NONE","N",189
"SUBJ-0152","Placebo",0,"Gastrointestinal disorders","Vomiting",1,"N","NONE","N",172
"SUBJ-0152","Placebo",0,"Investigations","Aspartate aminotransferase increased",1,"N","NONE","Y",180
"SUBJ-0152","Placebo",0,"Gastrointestinal disorders","Diarrhoea",2,"N","NONE","N",182
"SUBJ-0153","Placebo",0,"Respiratory disorders","Cough",2,"N","NONE","N",26
"SUBJ-0153","Placebo",0,"Metabolic disorders","Hypothyroidism",3,"N","NONE","N",277
"SUBJ-0153","Placebo",0,"General disorders","Pyrexia",1,"N","NONE","N",335
"SUBJ-0154","Placebo",0,"Gastrointestinal disorders","Diarrhoea",1,"N","NONE","N",55
"SUBJ-0154","Placebo",0,"Skin and subcutaneous tissue disorders","Rash",1,"N","NONE","Y",209
"SUBJ-0154","Placebo",0,"Nervous system disorders","Peripheral neuropathy",1,"N","NONE","N",250
"SUBJ-0155","Placebo",0,"Gastrointestinal disorders","Nausea",1,"N","NONE","N",213
"SUBJ-0155","Placebo",0,"Nervous system disorders","Headache",1,"N","NONE","N",215
"SUBJ-0155","Placebo",0,"General disorders","Death",5,"Y","DRUG_WITHDRAWN","N",383
"SUBJ-0156","Placebo",0,"General disorders","Pyrexia",1,"N","NONE","N",65
"SUBJ-0156","Placebo",0,"Gastrointestinal disorders","Decreased appetite",1,"N","DOSE_REDUCTION","N",177
"SUBJ-0156","Placebo",0,"Skin and subcutaneous tissue disorders","Rash",2,"N","NONE","N",226
"SUBJ-0157","Placebo",0,"Blood and lymphatic system disorders","Anaemia",2,"N","NONE","N",65
"SUBJ-0157","Placebo",0,"Gastrointestinal disorders","Decreased appetite",1,"N","NONE","N",129
"SUBJ-0157","Placebo",0,"Respiratory disorders","Cough",2,"N","NONE","N",311
"SUBJ-0158","Placebo",0,"Investigations","Aspartate aminotransferase increased",1,"N","NONE","N",41
"SUBJ-0158","Placebo",0,"Skin and subcutaneous tissue disorders","Rash",1,"N","NONE","N",131
"SUBJ-0158","Placebo",0,"Gastrointestinal disorders","Nausea",1,"N","NONE","N",340
"SUBJ-0159","Placebo",0,"Skin and subcutaneous tissue disorders","Rash",2,"N","NONE","N",22
"SUBJ-0159","Placebo",0,"Nervous system disorders","Headache",3,"N","DOSE_REDUCTION","N",84
"SUBJ-0159","Placebo",0,"Blood and lymphatic system disorders","Thrombocytopenia",2,"N","DOSE_REDUCTION","N",200
"SUBJ-0159","Placebo",0,"Respiratory disorders","Cough",1,"N","NONE","N",266
"SUBJ-0160","Placebo",0,"General disorders","Fatigue",2,"N","NONE","N",60
"SUBJ-0160","Placebo",0,"Gastrointestinal disorders","Decreased appetite",2,"N","NONE","N",300
"SUBJ-0160","Placebo",0,"Investigations","Alanine aminotransferase increased",1,"N","NONE","N",448
"SUBJ-0160","Placebo",0,"General disorders","Pyrexia",1,"N","NONE","N",497
"SUBJ-0160","Placebo",0,"Gastrointestinal disorders","Nausea",1,"N","NONE","N",508
"SUBJ-0161","Placebo",0,"Blood and lymphatic system disorders","Anaemia",2,"N","NONE","N",40
"SUBJ-0161","Placebo",0,"Gastrointestinal disorders","Vomiting",2,"N","NONE","N",48
"SUBJ-0161","Placebo",0,"Gastrointestinal disorders","Diarrhoea",1,"N","DOSE_REDUCTION","N",195
"SUBJ-0162","Placebo",0,"Gastrointestinal disorders","Decreased appetite",1,"N","NONE","N",62
"SUBJ-0162","Placebo",0,"Blood and lymphatic system disorders","Anaemia",2,"N","NONE","N",83
"SUBJ-0162","Placebo",0,"Gastrointestinal disorders","Nausea",1,"N","NONE","N",105
"SUBJ-0163","Placebo",0,"Gastrointestinal disorders","Decreased appetite",3,"N","DRUG_WITHDRAWN","N",168
"SUBJ-0163","Placebo",0,"Gastrointestinal disorders","Nausea",1,"N","NONE","N",273
"SUBJ-0163","Placebo",0,"General disorders","Death",5,"Y","DRUG_WITHDRAWN","N",440
"SUBJ-0164","Placebo",0,"Skin and subcutaneous tissue disorders","Rash",2,"N","NONE","N",76
"SUBJ-0164","Placebo",0,"Nervous system disorders","Headache",1,"N","NONE","N",186
"SUBJ-0164","Placebo",0,"General disorders","Fatigue",2,"N","NONE","N",196
"SUBJ-0165","Placebo",0,"Gastrointestinal disorders","Vomiting",1,"N","NONE","N",57
"SUBJ-0165","Placebo",0,"Nervous system disorders","Headache",2,"N","NONE","N",387
"SUBJ-0165","Placebo",0,"Blood and lymphatic system disorders","Anaemia",3,"N","DOSE_REDUCTION","N",419
"SUBJ-0165","Placebo",0,"General disorders","Death",5,"Y","DRUG_WITHDRAWN","N",478
"SUBJ-0166","Placebo",0,"General disorders","Death",5,"Y","DRUG_WITHDRAWN","N",165
"SUBJ-0167","Placebo",0,"Skin and subcutaneous tissue disorders","Rash",3,"N","NONE","N",33
"SUBJ-0167","Placebo",0,"General disorders","Pyrexia",1,"N","NONE","N",96
"SUBJ-0167","Placebo",0,"Gastrointestinal disorders","Decreased appetite",1,"N","NONE","N",115
"SUBJ-0167","Placebo",0,"Nervous system disorders","Headache",1,"N","NONE","N",118
"SUBJ-0167","Placebo",0,"Investigations","Alanine aminotransferase increased",3,"N","NONE","Y",258
"SUBJ-0168","Placebo",0,"Blood and lymphatic system disorders","Neutropenia",2,"N","NONE","N",50
"SUBJ-0168","Placebo",0,"Nervous system disorders","Headache",1,"N","NONE","N",171
"SUBJ-0168","Placebo",0,"Renal and urinary disorders","Acute kidney injury",2,"N","NONE","N",219
"SUBJ-0169","Placebo",0,"Respiratory disorders","Cough",1,"N","NONE","N",380
"SUBJ-0170","Placebo",0,"Respiratory disorders","Cough",1,"N","NONE","N",166
"SUBJ-0170","Placebo",0,"Blood and lymphatic system disorders","Neutropenia",2,"N","NONE","N",310
"SUBJ-0170","Placebo",0,"General disorders","Fatigue",1,"N","NONE","N",350
"SUBJ-0170","Placebo",0,"Nervous system disorders","Headache",3,"Y","DRUG_WITHDRAWN","N",443
"SUBJ-0171","Placebo",0,"Cardiac disorders","Atrial fibrillation",3,"Y","DRUG_WITHDRAWN","N",10
"SUBJ-0171","Placebo",0,"Gastrointestinal disorders","Decreased appetite",1,"N","DOSE_REDUCTION","N",143
"SUBJ-0171","Placebo",0,"General disorders","Death",5,"Y","DRUG_WITHDRAWN","N",404
"SUBJ-0172","Placebo",0,"Skin and subcutaneous tissue disorders","Pruritus",2,"N","DOSE_REDUCTION","N",35
"SUBJ-0172","Placebo",0,"Respiratory disorders","Cough",1,"N","NONE","N",59
"SUBJ-0172","Placebo",0,"Blood and lymphatic system disorders","Anaemia",2,"N","NONE","N",102
"SUBJ-0172","Placebo",0,"Investigations","Alanine aminotransferase increased",3,"N","DOSE_REDUCTION","N",150
"SUBJ-0172","Placebo",0,"Nervous system disorders","Peripheral neuropathy",1,"N","NONE","N",271
"SUBJ-0172","Placebo",0,"Blood and lymphatic system disorders","Thrombocytopenia",4,"Y","DOSE_REDUCTION","N",436
"SUBJ-0172","Placebo",0,"Gastrointestinal disorders","Diarrhoea",1,"N","DOSE_REDUCTION","Y",461
"SUBJ-0173","Placebo",0,"Gastrointestinal disorders","Diarrhoea",3,"N","DOSE_REDUCTION","N",20
"SUBJ-0173","Placebo",0,"Gastrointestinal disorders","Nausea",2,"N","NONE","N",157
"SUBJ-0174","Placebo",0,"Nervous system disorders","Peripheral neuropathy",1,"N","NONE","N",8
"SUBJ-0174","Placebo",0,"Skin and subcutaneous tissue disorders","Pruritus",1,"N","NONE","N",82
"SUBJ-0174","Placebo",0,"General disorders","Fatigue",2,"N","NONE","N",270
"SUBJ-0174","Placebo",0,"Skin and subcutaneous tissue disorders","Rash",1,"N","DOSE_REDUCTION","N",414
"SUBJ-0175","Placebo",0,"Skin and subcutaneous tissue disorders","Pruritus",1,"N","NONE","N",105
"SUBJ-0175","Placebo",0,"Nervous system disorders","Headache",1,"N","NONE","N",241
"SUBJ-0175","Placebo",0,"Blood and lymphatic system disorders","Neutropenia",2,"N","DOSE_REDUCTION","N",461
"SUBJ-0176","Placebo",0,"Gastrointestinal disorders","Decreased appetite",1,"N","NONE","N",10
"SUBJ-0176","Placebo",0,"Investigations","Aspartate aminotransferase increased",1,"N","NONE","N",11
"SUBJ-0176","Placebo",0,"Gastrointestinal disorders","Diarrhoea",1,"N","NONE","N",39
"SUBJ-0176","Placebo",0,"General disorders","Fatigue",2,"N","NONE","N",68
"SUBJ-0176","Placebo",0,"Gastrointestinal disorders","Vomiting",1,"N","NONE","N",99
"SUBJ-0176","Placebo",0,"Cardiac disorders","Atrial fibrillation",2,"N","NONE","N",321
"SUBJ-0177","Placebo",0,"Renal and urinary disorders","Acute kidney injury",2,"N","NONE","N",217
"SUBJ-0177","Placebo",0,"Investigations","Alanine aminotransferase increased",2,"N","DOSE_REDUCTION","Y",237
"SUBJ-0177","Placebo",0,"Blood and lymphatic system disorders","Thrombocytopenia",2,"N","NONE","N",256
"SUBJ-0178","Placebo",0,"General disorders","Fatigue",2,"N","NONE","N",122
"SUBJ-0178","Placebo",0,"Skin and subcutaneous tissue disorders","Pruritus",2,"N","NONE","Y",303
"SUBJ-0179","Placebo",0,"Investigations","Aspartate aminotransferase increased",3,"N","NONE","N",47
"SUBJ-0179","Placebo",0,"General disorders","Fatigue",2,"N","NONE","N",85
"SUBJ-0179","Placebo",0,"Investigations","Alanine aminotransferase increased",1,"N","NONE","Y",189
"SUBJ-0179","Placebo",0,"Gastrointestinal disorders","Nausea",1,"N","NONE","N",245
"SUBJ-0179","Placebo",0,"General disorders","Death",5,"Y","DRUG_WITHDRAWN","N",468
"SUBJ-0180","Placebo",0,"General disorders","Fatigue",1,"N","NONE","N",49
"SUBJ-0180","Placebo",0,"Gastrointestinal disorders","Vomiting",1,"N","NONE","N",83
"SUBJ-0180","Placebo",0,"Gastrointestinal disorders","Diarrhoea",1,"N","NONE","N",192
"SUBJ-0181","Placebo",0,"Respiratory disorders","Cough",1,"N","NONE","N",314
"SUBJ-0182","Placebo",0,"General disorders","Fatigue",3,"Y","NONE","N",99
"SUBJ-0182","Placebo",0,"Investigations","Aspartate aminotransferase increased",1,"N","NONE","N",102
"SUBJ-0183","Placebo",0,"Gastrointestinal disorders","Nausea",3,"N","DOSE_REDUCTION","N",57
"SUBJ-0183","Placebo",0,"Cardiac disorders","Atrial fibrillation",3,"Y","NONE","N",220
"SUBJ-0183","Placebo",0,"General disorders","Death",5,"Y","DRUG_WITHDRAWN","N",458
"SUBJ-0184","Placebo",0,"Investigations","Blood bilirubin increased",1,"N","NONE","N",45
"SUBJ-0184","Placebo",0,"Cardiac disorders","Atrial fibrillation",2,"N","NONE","N",101
"SUBJ-0184","Placebo",0,"Respiratory disorders","Cough",3,"N","NONE","N",150
"SUBJ-0184","Placebo",0,"Blood and lymphatic system disorders","Neutropenia",2,"N","NONE","N",349
"SUBJ-0185","Placebo",0,"Blood and lymphatic system disorders","Neutropenia",2,"N","NONE","N",39
"SUBJ-0185","Placebo",0,"Gastrointestinal disorders","Decreased appetite",1,"N","DOSE_REDUCTION","N",42
"SUBJ-0185","Placebo",0,"Gastrointestinal disorders","Diarrhoea",1,"N","NONE","N",59
"SUBJ-0185","Placebo",0,"Blood and lymphatic system disorders","Thrombocytopenia",3,"N","DRUG_WITHDRAWN","N",175
"SUBJ-0185","Placebo",0,"Blood and lymphatic system disorders","Anaemia",2,"N","NONE","N",178
"SUBJ-0185","Placebo",0,"Metabolic disorders","Hypothyroidism",1,"N","NONE","N",307
"SUBJ-0186","Placebo",0,"Gastrointestinal disorders","Vomiting",2,"N","NONE","N",40
"SUBJ-0186","Placebo",0,"Nervous system disorders","Headache",3,"N","DOSE_REDUCTION","N",104
"SUBJ-0186","Placebo",0,"General disorders","Pyrexia",3,"Y","NONE","N",121
"SUBJ-0186","Placebo",0,"Skin and subcutaneous tissue disorders","Rash",1,"N","NONE","N",130
"SUBJ-0186","Placebo",0,"Blood and lymphatic system disorders","Thrombocytopenia",2,"N","NONE","N",260
"SUBJ-0187","Placebo",0,"Gastrointestinal disorders","Nausea",2,"N","NONE","N",35
"SUBJ-0187","Placebo",0,"Gastrointestinal disorders","Diarrhoea",1,"N","NONE","Y",43
"SUBJ-0188","Placebo",0,"General disorders","Pyrexia",2,"N","NONE","N",128
"SUBJ-0188","Placebo",0,"Gastrointestinal disorders","Nausea",1,"N","NONE","N",148
"SUBJ-0189","Placebo",0,"Investigations","Blood bilirubin increased",2,"N","NONE","N",15
"SUBJ-0189","Placebo",0,"General disorders","Fatigue",3,"N","NONE","N",21
"SUBJ-0189","Placebo",0,"Gastrointestinal disorders","Nausea",2,"N","DOSE_REDUCTION","N",28
"SUBJ-0190","Placebo",0,"Nervous system disorders","Headache",1,"N","NONE","N",7
"SUBJ-0190","Placebo",0,"Gastrointestinal disorders","Vomiting",1,"N","DOSE_REDUCTION","N",68
"SUBJ-0191","Placebo",0,"Investigations","Alanine aminotransferase increased",2,"N","NONE","Y",26
"SUBJ-0191","Placebo",0,"General disorders","Pyrexia",1,"N","NONE","N",157
"SUBJ-0192","Placebo",0,"Gastrointestinal disorders","Nausea",2,"N","DOSE_REDUCTION","N",80
"SUBJ-0192","Placebo",0,"General disorders","Fatigue",1,"N","NONE","N",164
"SUBJ-0193","Placebo",0,"Gastrointestinal disorders","Decreased appetite",1,"N","DOSE_REDUCTION","N",321
"SUBJ-0193","Placebo",0,"Gastrointestinal disorders","Nausea",3,"N","DOSE_REDUCTION","N",354
"SUBJ-0193","Placebo",0,"Respiratory disorders","Cough",1,"N","NONE","N",358
"SUBJ-0194","Placebo",0,"Gastrointestinal disorders","Diarrhoea",2,"N","NONE","N",28
"SUBJ-0194","Placebo",0,"Gastrointestinal disorders","Decreased appetite",2,"N","NONE","N",36
"SUBJ-0194","Placebo",0,"Nervous system disorders","Headache",1,"N","NONE","N",47
"SUBJ-0194","Placebo",0,"Skin and subcutaneous tissue disorders","Rash",1,"N","NONE","N",90
"SUBJ-0194","Placebo",0,"General disorders","Pyrexia",1,"N","DOSE_REDUCTION","N",201
"SUBJ-0195","Placebo",0,"Gastrointestinal disorders","Vomiting",3,"N","DRUG_WITHDRAWN","N",111
"SUBJ-0195","Placebo",0,"Nervous system disorders","Peripheral neuropathy",1,"N","NONE","N",143
"SUBJ-0196","Placebo",0,"Cardiac disorders","Atrial fibrillation",3,"Y","NONE","N",93
"SUBJ-0196","Placebo",0,"Gastrointestinal disorders","Nausea",3,"Y","DOSE_REDUCTION","N",207
"SUBJ-0196","Placebo",0,"Investigations","Alanine aminotransferase increased",1,"N","NONE","N",325
"SUBJ-0196","Placebo",0,"Investigations","Blood bilirubin increased",2,"N","DOSE_REDUCTION","N",432
"SUBJ-0196","Placebo",0,"Gastrointestinal disorders","Diarrhoea",2,"N","DOSE_REDUCTION","N",433
"SUBJ-0197","Placebo",0,"General disorders","Pyrexia",2,"N","NONE","N",64
"SUBJ-0197","Placebo",0,"Respiratory disorders","Cough",1,"N","NONE","N",183
"SUBJ-0197","Placebo",0,"Skin and subcutaneous tissue disorders","Rash",1,"N","NONE","Y",303
"SUBJ-0197","Placebo",0,"Gastrointestinal disorders","Nausea",1,"N","NONE","N",328
"SUBJ-0198","Placebo",0,"Investigations","Aspartate aminotransferase increased",1,"N","NONE","N",56
"SUBJ-0198","Placebo",0,"Nervous system disorders","Peripheral neuropathy",1,"N","NONE","N",225
"SUBJ-0199","Placebo",0,"Gastrointestinal disorders","Diarrhoea",2,"N","DOSE_REDUCTION","Y",179
"SUBJ-0199","Placebo",0,"Gastrointestinal disorders","Nausea",2,"N","NONE","N",368
"SUBJ-0199","Placebo",0,"Blood and lymphatic system disorders","Anaemia",2,"N","NONE","N",413
"SUBJ-0199","Placebo",0,"General disorders","Death",5,"Y","DRUG_WITHDRAWN","N",588
"SUBJ-0200","Placebo",0,"Investigations","Aspartate aminotransferase increased",1,"N","NONE","N",388
"SUBJ-0201","Active",1,"Gastrointestinal disorders","Diarrhoea",1,"N","NONE","Y",37
"SUBJ-0201","Active",1,"Skin and subcutaneous tissue disorders","Pruritus",2,"N","NONE","Y",65
"SUBJ-0201","Active",1,"Gastrointestinal disorders","Nausea",1,"N","NONE","N",108
"SUBJ-0201","Active",1,"Renal and urinary disorders","Acute kidney injury",4,"Y","DRUG_WITHDRAWN","N",138
"SUBJ-0201","Active",1,"Gastrointestinal disorders","Vomiting",2,"N","NONE","N",159
"SUBJ-0201","Active",1,"General disorders","Fatigue",1,"N","DOSE_REDUCTION","N",160
"SUBJ-0201","Active",1,"Investigations","Aspartate aminotransferase increased",3,"Y","NONE","N",198
"SUBJ-0202","Active",1,"Gastrointestinal disorders","Decreased appetite",3,"N","DRUG_WITHDRAWN","N",26
"SUBJ-0202","Active",1,"General disorders","Fatigue",1,"N","NONE","N",27
"SUBJ-0202","Active",1,"Skin and subcutaneous tissue disorders","Rash",1,"N","NONE","Y",37
"SUBJ-0202","Active",1,"Nervous system disorders","Peripheral neuropathy",2,"N","DOSE_REDUCTION","N",139
"SUBJ-0202","Active",1,"Blood and lymphatic system disorders","Anaemia",2,"N","DOSE_REDUCTION","N",174
"SUBJ-0202","Active",1,"Nervous system disorders","Headache",1,"N","NONE","N",206
"SUBJ-0202","Active",1,"Gastrointestinal disorders","Nausea",1,"N","NONE","N",272
"SUBJ-0202","Active",1,"Gastrointestinal disorders","Vomiting",1,"N","NONE","N",388
"SUBJ-0203","Active",1,"Gastrointestinal disorders","Diarrhoea",1,"N","NONE","Y",115
"SUBJ-0203","Active",1,"Blood and lymphatic system disorders","Neutropenia",3,"N","NONE","N",153
"SUBJ-0203","Active",1,"General disorders","Fatigue",2,"N","NONE","N",389
"SUBJ-0203","Active",1,"Nervous system disorders","Headache",2,"N","NONE","N",499
"SUBJ-0203","Active",1,"Investigations","Blood bilirubin increased",3,"Y","DRUG_WITHDRAWN","N",507
"SUBJ-0204","Active",1,"Blood and lymphatic system disorders","Neutropenia",3,"Y","NONE","N",127
"SUBJ-0204","Active",1,"Gastrointestinal disorders","Nausea",3,"N","NONE","N",145
"SUBJ-0204","Active",1,"Gastrointestinal disorders","Diarrhoea",3,"N","DOSE_REDUCTION","Y",162
"SUBJ-0204","Active",1,"Blood and lymphatic system disorders","Thrombocytopenia",2,"N","NONE","N",499
"SUBJ-0204","Active",1,"Gastrointestinal disorders","Decreased appetite",1,"N","NONE","N",506
"SUBJ-0204","Active",1,"Nervous system disorders","Headache",2,"N","DOSE_REDUCTION","N",566
"SUBJ-0204","Active",1,"General disorders","Death",5,"Y","DRUG_WITHDRAWN","N",610
"SUBJ-0205","Active",1,"Gastrointestinal disorders","Diarrhoea",3,"Y","NONE","N",186
"SUBJ-0205","Active",1,"Nervous system disorders","Headache",3,"N","NONE","N",210
"SUBJ-0205","Active",1,"Blood and lymphatic system disorders","Neutropenia",2,"N","DOSE_REDUCTION","N",278
"SUBJ-0206","Active",1,"Skin and subcutaneous tissue disorders","Pruritus",1,"N","NONE","N",53
"SUBJ-0206","Active",1,"General disorders","Fatigue",1,"N","NONE","N",145
"SUBJ-0206","Active",1,"Gastrointestinal disorders","Decreased appetite",1,"N","NONE","N",286
"SUBJ-0207","Active",1,"Skin and subcutaneous tissue disorders","Pruritus",2,"N","NONE","Y",6
"SUBJ-0207","Active",1,"General disorders","Fatigue",2,"N","NONE","N",69
"SUBJ-0207","Active",1,"Nervous system disorders","Peripheral neuropathy",3,"N","DRUG_WITHDRAWN","N",203
"SUBJ-0207","Active",1,"Gastrointestinal disorders","Nausea",1,"N","NONE","N",211
"SUBJ-0208","Active",1,"Gastrointestinal disorders","Nausea",1,"N","NONE","N",10
"SUBJ-0208","Active",1,"Gastrointestinal disorders","Diarrhoea",3,"N","NONE","Y",90
"SUBJ-0208","Active",1,"Gastrointestinal disorders","Decreased appetite",3,"N","DOSE_REDUCTION","N",104
"SUBJ-0208","Active",1,"Skin and subcutaneous tissue disorders","Rash",1,"N","DOSE_REDUCTION","Y",236
"SUBJ-0208","Active",1,"Investigations","Aspartate aminotransferase increased",3,"N","DOSE_REDUCTION","Y",280
"SUBJ-0208","Active",1,"Gastrointestinal disorders","Vomiting",1,"N","NONE","N",307
"SUBJ-0208","Active",1,"Investigations","Alanine aminotransferase increased",3,"Y","DOSE_REDUCTION","Y",314
"SUBJ-0209","Active",1,"Nervous system disorders","Peripheral neuropathy",2,"N","NONE","N",44
"SUBJ-0209","Active",1,"Gastrointestinal disorders","Diarrhoea",3,"N","DRUG_WITHDRAWN","Y",86
"SUBJ-0209","Active",1,"General disorders","Pyrexia",3,"N","NONE","N",228
"SUBJ-0209","Active",1,"Investigations","Alanine aminotransferase increased",3,"Y","NONE","Y",332
"SUBJ-0209","Active",1,"General disorders","Death",5,"Y","DRUG_WITHDRAWN","N",367
"SUBJ-0210","Active",1,"General disorders","Pyrexia",2,"N","NONE","N",24
"SUBJ-0210","Active",1,"Blood and lymphatic system disorders","Thrombocytopenia",2,"N","NONE","N",58
"SUBJ-0210","Active",1,"Gastrointestinal disorders","Vomiting",1,"N","NONE","N",90
"SUBJ-0210","Active",1,"Investigations","Aspartate aminotransferase increased",3,"N","NONE","Y",120
"SUBJ-0210","Active",1,"Blood and lymphatic system disorders","Neutropenia",3,"N","NONE","N",158
"SUBJ-0210","Active",1,"Skin and subcutaneous tissue disorders","Rash",2,"N","NONE","N",346
"SUBJ-0211","Active",1,"Gastrointestinal disorders","Nausea",3,"N","NONE","N",170
"SUBJ-0211","Active",1,"Metabolic disorders","Hypothyroidism",2,"N","DOSE_REDUCTION","Y",173
"SUBJ-0211","Active",1,"Investigations","Alanine aminotransferase increased",2,"N","NONE","Y",190
"SUBJ-0211","Active",1,"Blood and lymphatic system disorders","Thrombocytopenia",2,"N","NONE","N",259
"SUBJ-0211","Active",1,"Gastrointestinal disorders","Decreased appetite",2,"N","NONE","N",306
"SUBJ-0212","Active",1,"Gastrointestinal disorders","Decreased appetite",2,"N","NONE","N",72
"SUBJ-0212","Active",1,"Skin and subcutaneous tissue disorders","Rash",1,"N","NONE","N",474
"SUBJ-0212","Active",1,"Investigations","Aspartate aminotransferase increased",1,"N","NONE","Y",584
"SUBJ-0213","Active",1,"Blood and lymphatic system disorders","Anaemia",3,"N","NONE","N",72
"SUBJ-0213","Active",1,"Skin and subcutaneous tissue disorders","Rash",3,"N","NONE","N",310
"SUBJ-0214","Active",1,"Gastrointestinal disorders","Decreased appetite",1,"N","NONE","N",5
"SUBJ-0214","Active",1,"Gastrointestinal disorders","Diarrhoea",1,"N","NONE","Y",109
"SUBJ-0214","Active",1,"Gastrointestinal disorders","Vomiting",2,"N","NONE","N",118
"SUBJ-0214","Active",1,"Metabolic disorders","Hypothyroidism",1,"N","DOSE_REDUCTION","Y",394
"SUBJ-0215","Active",1,"Skin and subcutaneous tissue disorders","Rash",1,"N","NONE","Y",88
"SUBJ-0215","Active",1,"Gastrointestinal disorders","Diarrhoea",1,"N","NONE","Y",119
"SUBJ-0215","Active",1,"Gastrointestinal disorders","Nausea",1,"N","NONE","N",401
"SUBJ-0215","Active",1,"General disorders","Fatigue",1,"N","NONE","N",427
"SUBJ-0215","Active",1,"Investigations","Blood bilirubin increased",2,"N","NONE","N",451
"SUBJ-0216","Active",1,"Skin and subcutaneous tissue disorders","Pruritus",3,"Y","DOSE_REDUCTION","Y",56
"SUBJ-0216","Active",1,"Investigations","Blood bilirubin increased",1,"N","DOSE_REDUCTION","N",64
"SUBJ-0216","Active",1,"Blood and lymphatic system disorders","Neutropenia",3,"Y","NONE","N",86
"SUBJ-0216","Active",1,"Skin and subcutaneous tissue disorders","Rash",3,"N","DRUG_WITHDRAWN","Y",92
"SUBJ-0217","Active",1,"Skin and subcutaneous tissue disorders","Pruritus",1,"N","DOSE_REDUCTION","N",59
"SUBJ-0217","Active",1,"Gastrointestinal disorders","Diarrhoea",1,"N","NONE","N",230
"SUBJ-0218","Active",1,"Skin and subcutaneous tissue disorders","Rash",2,"N","NONE","Y",13
"SUBJ-0218","Active",1,"Gastrointestinal disorders","Diarrhoea",2,"N","NONE","Y",303
"SUBJ-0218","Active",1,"Gastrointestinal disorders","Nausea",1,"N","NONE","N",323
"SUBJ-0218","Active",1,"Hepatobiliary disorders","Drug-induced liver injury",3,"N","NONE","N",360
"SUBJ-0218","Active",1,"Gastrointestinal disorders","Decreased appetite",2,"N","DOSE_REDUCTION","N",537
"SUBJ-0219","Active",1,"Skin and subcutaneous tissue disorders","Pruritus",1,"N","NONE","Y",16
"SUBJ-0219","Active",1,"Investigations","Alanine aminotransferase increased",2,"N","NONE","N",159
"SUBJ-0219","Active",1,"Metabolic disorders","Hypothyroidism",2,"N","NONE","Y",356
"SUBJ-0220","Active",1,"Investigations","Alanine aminotransferase increased",1,"N","NONE","Y",24
"SUBJ-0220","Active",1,"General disorders","Fatigue",3,"Y","DOSE_REDUCTION","N",82
"SUBJ-0220","Active",1,"Blood and lymphatic system disorders","Anaemia",2,"N","NONE","N",89
"SUBJ-0220","Active",1,"Gastrointestinal disorders","Diarrhoea",1,"N","NONE","Y",92
"SUBJ-0220","Active",1,"Gastrointestinal disorders","Nausea",3,"N","NONE","N",160
"SUBJ-0220","Active",1,"Investigations","Aspartate aminotransferase increased",2,"N","NONE","Y",168
"SUBJ-0221","Active",1,"General disorders","Pyrexia",1,"N","DOSE_REDUCTION","N",29
"SUBJ-0221","Active",1,"Skin and subcutaneous tissue disorders","Pruritus",1,"N","NONE","Y",79
"SUBJ-0221","Active",1,"Blood and lymphatic system disorders","Anaemia",4,"Y","DRUG_WITHDRAWN","N",147
"SUBJ-0222","Active",1,"Gastrointestinal disorders","Nausea",1,"N","DOSE_REDUCTION","N",73
"SUBJ-0222","Active",1,"Nervous system disorders","Peripheral neuropathy",2,"N","NONE","N",317
"SUBJ-0222","Active",1,"Skin and subcutaneous tissue disorders","Rash",1,"N","NONE","Y",327
"SUBJ-0222","Active",1,"Gastrointestinal disorders","Diarrhoea",1,"N","NONE","Y",346
"SUBJ-0223","Active",1,"Metabolic disorders","Hypothyroidism",1,"N","NONE","N",325
"SUBJ-0224","Active",1,"Investigations","Alanine aminotransferase increased",2,"N","NONE","Y",66
"SUBJ-0224","Active",1,"Gastrointestinal disorders","Diarrhoea",1,"N","NONE","Y",232
"SUBJ-0224","Active",1,"Metabolic disorders","Hypothyroidism",3,"Y","DOSE_REDUCTION","N",317
"SUBJ-0224","Active",1,"Blood and lymphatic system disorders","Thrombocytopenia",4,"Y","DRUG_WITHDRAWN","N",322
"SUBJ-0225","Active",1,"Investigations","Aspartate aminotransferase increased",1,"N","DOSE_REDUCTION","Y",390
"SUBJ-0226","Active",1,"Skin and subcutaneous tissue disorders","Pruritus",3,"N","NONE","Y",27
"SUBJ-0226","Active",1,"Blood and lymphatic system disorders","Neutropenia",2,"N","NONE","N",50
"SUBJ-0226","Active",1,"Gastrointestinal disorders","Diarrhoea",2,"N","NONE","Y",158
"SUBJ-0226","Active",1,"Investigations","Aspartate aminotransferase increased",1,"N","NONE","N",386
"SUBJ-0227","Active",1,"Skin and subcutaneous tissue disorders","Rash",2,"N","NONE","Y",266
"SUBJ-0227","Active",1,"Investigations","Blood bilirubin increased",1,"N","DOSE_REDUCTION","N",452
"SUBJ-0228","Active",1,"Skin and subcutaneous tissue disorders","Pruritus",1,"N","NONE","Y",36
"SUBJ-0228","Active",1,"General disorders","Pyrexia",1,"N","NONE","N",120
"SUBJ-0228","Active",1,"Gastrointestinal disorders","Nausea",1,"N","NONE","N",128
"SUBJ-0228","Active",1,"Blood and lymphatic system disorders","Anaemia",4,"Y","DRUG_WITHDRAWN","N",190
"SUBJ-0228","Active",1,"Gastrointestinal disorders","Vomiting",2,"N","NONE","N",205
"SUBJ-0228","Active",1,"Investigations","Aspartate aminotransferase increased",1,"N","NONE","Y",207
"SUBJ-0229","Active",1,"Investigations","Blood bilirubin increased",1,"N","NONE","N",13
"SUBJ-0229","Active",1,"Respiratory disorders","Cough",3,"N","NONE","N",22
"SUBJ-0229","Active",1,"Investigations","Alanine aminotransferase increased",1,"N","DOSE_REDUCTION","N",34
"SUBJ-0229","Active",1,"Skin and subcutaneous tissue disorders","Pruritus",2,"N","NONE","N",53
"SUBJ-0229","Active",1,"Gastrointestinal disorders","Diarrhoea",2,"N","NONE","Y",120
"SUBJ-0229","Active",1,"General disorders","Fatigue",1,"N","NONE","N",140
"SUBJ-0230","Active",1,"Gastrointestinal disorders","Decreased appetite",2,"N","NONE","N",19
"SUBJ-0230","Active",1,"Blood and lymphatic system disorders","Anaemia",3,"Y","NONE","N",52
"SUBJ-0230","Active",1,"Respiratory disorders","Cough",3,"Y","NONE","N",122
"SUBJ-0230","Active",1,"General disorders","Fatigue",1,"N","DOSE_REDUCTION","N",205
"SUBJ-0230","Active",1,"Gastrointestinal disorders","Nausea",2,"N","NONE","N",262
"SUBJ-0231","Active",1,"General disorders","Fatigue",1,"N","NONE","N",4
"SUBJ-0231","Active",1,"Cardiac disorders","QT prolongation",2,"N","NONE","N",30
"SUBJ-0231","Active",1,"Investigations","Aspartate aminotransferase increased",1,"N","NONE","Y",38
"SUBJ-0232","Active",1,"Metabolic disorders","Hypothyroidism",3,"Y","NONE","Y",126
"SUBJ-0232","Active",1,"Skin and subcutaneous tissue disorders","Rash",1,"N","NONE","Y",213
"SUBJ-0232","Active",1,"Skin and subcutaneous tissue disorders","Pruritus",2,"N","NONE","Y",224
"SUBJ-0232","Active",1,"Gastrointestinal disorders","Nausea",1,"N","NONE","N",344
"SUBJ-0232","Active",1,"Blood and lymphatic system disorders","Anaemia",3,"Y","NONE","N",358
"SUBJ-0232","Active",1,"General disorders","Fatigue",2,"N","NONE","N",415
"SUBJ-0232","Active",1,"Blood and lymphatic system disorders","Neutropenia",3,"N","DOSE_REDUCTION","N",429
"SUBJ-0233","Active",1,"Gastrointestinal disorders","Diarrhoea",2,"N","NONE","Y",16
"SUBJ-0233","Active",1,"General disorders","Fatigue",2,"N","NONE","N",42
"SUBJ-0233","Active",1,"Cardiac disorders","QT prolongation",3,"N","NONE","N",120
"SUBJ-0233","Active",1,"Gastrointestinal disorders","Vomiting",3,"Y","DOSE_REDUCTION","N",189
"SUBJ-0233","Active",1,"Investigations","Aspartate aminotransferase increased",1,"N","NONE","N",236
"SUBJ-0233","Active",1,"Gastrointestinal disorders","Nausea",1,"N","NONE","N",251
"SUBJ-0233","Active",1,"Blood and lymphatic system disorders","Neutropenia",2,"N","DOSE_REDUCTION","N",251
"SUBJ-0233","Active",1,"Metabolic disorders","Hypothyroidism",2,"N","NONE","N",307
"SUBJ-0234","Active",1,"General disorders","Fatigue",1,"N","NONE","N",96
"SUBJ-0234","Active",1,"Gastrointestinal disorders","Nausea",2,"N","NONE","N",102
"SUBJ-0234","Active",1,"Skin and subcutaneous tissue disorders","Pruritus",2,"N","NONE","Y",210
"SUBJ-0234","Active",1,"Gastrointestinal disorders","Decreased appetite",1,"N","NONE","N",257
"SUBJ-0235","Active",1,"Investigations","Aspartate aminotransferase increased",2,"N","NONE","N",26
"SUBJ-0235","Active",1,"Gastrointestinal disorders","Decreased appetite",1,"N","DOSE_REDUCTION","N",32
"SUBJ-0235","Active",1,"Gastrointestinal disorders","Diarrhoea",3,"N","DRUG_WITHDRAWN","Y",49
"SUBJ-0235","Active",1,"General disorders","Pyrexia",1,"N","NONE","N",74
"SUBJ-0235","Active",1,"Nervous system disorders","Peripheral neuropathy",2,"N","NONE","N",139
"SUBJ-0235","Active",1,"Investigations","Blood bilirubin increased",3,"Y","NONE","N",158
"SUBJ-0235","Active",1,"Blood and lymphatic system disorders","Thrombocytopenia",2,"N","NONE","N",209
"SUBJ-0236","Active",1,"Skin and subcutaneous tissue disorders","Rash",1,"N","NONE","Y",155
"SUBJ-0236","Active",1,"Gastrointestinal disorders","Nausea",2,"N","DOSE_REDUCTION","N",202
"SUBJ-0236","Active",1,"General disorders","Fatigue",2,"N","NONE","N",227
"SUBJ-0237","Active",1,"Skin and subcutaneous tissue disorders","Pruritus",1,"N","NONE","N",38
"SUBJ-0237","Active",1,"Gastrointestinal disorders","Decreased appetite",1,"N","NONE","N",73
"SUBJ-0237","Active",1,"Investigations","Blood bilirubin increased",3,"Y","DOSE_REDUCTION","N",92
"SUBJ-0237","Active",1,"Investigations","Alanine aminotransferase increased",1,"N","NONE","Y",112
"SUBJ-0237","Active",1,"Blood and lymphatic system disorders","Anaemia",4,"Y","DOSE_REDUCTION","N",115
"SUBJ-0238","Active",1,"Investigations","Aspartate aminotransferase increased",2,"N","DOSE_REDUCTION","N",246
"SUBJ-0238","Active",1,"Gastrointestinal disorders","Vomiting",2,"N","NONE","N",290
"SUBJ-0238","Active",1,"Gastrointestinal disorders","Diarrhoea",2,"N","NONE","N",337
"SUBJ-0238","Active",1,"Nervous system disorders","Headache",2,"N","DOSE_REDUCTION","N",415
"SUBJ-0239","Active",1,"Gastrointestinal disorders","Nausea",1,"N","NONE","N",131
"SUBJ-0239","Active",1,"Nervous system disorders","Headache",2,"N","NONE","N",266
"SUBJ-0239","Active",1,"Respiratory disorders","Cough",1,"N","DOSE_REDUCTION","N",335
"SUBJ-0240","Active",1,"Gastrointestinal disorders","Decreased appetite",2,"N","NONE","N",21
"SUBJ-0240","Active",1,"Skin and subcutaneous tissue disorders","Pruritus",1,"N","NONE","Y",118
"SUBJ-0240","Active",1,"Cardiac disorders","Atrial fibrillation",2,"N","NONE","N",140
"SUBJ-0240","Active",1,"Skin and subcutaneous tissue disorders","Rash",3,"N","NONE","Y",165
"SUBJ-0240","Active",1,"Blood and lymphatic system disorders","Thrombocytopenia",2,"N","NONE","N",232
"SUBJ-0240","Active",1,"Blood and lymphatic system disorders","Anaemia",2,"N","NONE","N",305
"SUBJ-0240","Active",1,"Investigations","Aspartate aminotransferase increased",1,"N","NONE","Y",305
"SUBJ-0240","Active",1,"General disorders","Death",5,"Y","DRUG_WITHDRAWN","N",340
"SUBJ-0241","Active",1,"Renal and urinary disorders","Acute kidney injury",2,"N","NONE","N",83
"SUBJ-0241","Active",1,"General disorders","Fatigue",1,"N","NONE","N",120
"SUBJ-0241","Active",1,"Skin and subcutaneous tissue disorders","Rash",1,"N","NONE","N",169
"SUBJ-0242","Active",1,"Gastrointestinal disorders","Decreased appetite",1,"N","NONE","N",18
"SUBJ-0242","Active",1,"Blood and lymphatic system disorders","Neutropenia",2,"N","NONE","N",177
"SUBJ-0242","Active",1,"General disorders","Fatigue",1,"N","NONE","N",201
"SUBJ-0242","Active",1,"Gastrointestinal disorders","Vomiting",2,"N","NONE","N",203
"SUBJ-0242","Active",1,"Investigations","Alanine aminotransferase increased",1,"N","DOSE_REDUCTION","N",217
"SUBJ-0242","Active",1,"Nervous system disorders","Headache",1,"N","NONE","N",356
"SUBJ-0243","Active",1,"Gastrointestinal disorders","Nausea",1,"N","NONE","N",29
"SUBJ-0243","Active",1,"Cardiac disorders","QT prolongation",2,"N","NONE","N",323
"SUBJ-0244","Active",1,"Skin and subcutaneous tissue disorders","Rash",2,"N","NONE","Y",94
"SUBJ-0244","Active",1,"Blood and lymphatic system disorders","Neutropenia",4,"Y","DOSE_REDUCTION","N",180
"SUBJ-0244","Active",1,"Respiratory disorders","Cough",2,"N","NONE","N",318
"SUBJ-0244","Active",1,"Investigations","Alanine aminotransferase increased",2,"N","NONE","Y",398
"SUBJ-0244","Active",1,"General disorders","Fatigue",1,"N","NONE","N",473
"SUBJ-0244","Active",1,"Skin and subcutaneous tissue disorders","Pruritus",2,"N","NONE","Y",510
"SUBJ-0244","Active",1,"General disorders","Death",5,"Y","DRUG_WITHDRAWN","N",537
"SUBJ-0245","Active",1,"General disorders","Fatigue",1,"N","DOSE_REDUCTION","N",31
"SUBJ-0245","Active",1,"Blood and lymphatic system disorders","Thrombocytopenia",2,"N","DOSE_REDUCTION","N",177
"SUBJ-0245","Active",1,"Gastrointestinal disorders","Nausea",2,"N","NONE","N",226
"SUBJ-0245","Active",1,"Investigations","Blood bilirubin increased",3,"N","NONE","N",249
"SUBJ-0245","Active",1,"Gastrointestinal disorders","Diarrhoea",1,"N","NONE","Y",257
"SUBJ-0246","Active",1,"Nervous system disorders","Peripheral neuropathy",2,"N","NONE","N",63
"SUBJ-0246","Active",1,"Gastrointestinal disorders","Diarrhoea",1,"N","NONE","N",264
"SUBJ-0246","Active",1,"Blood and lymphatic system disorders","Anaemia",2,"N","DOSE_REDUCTION","N",278
"SUBJ-0246","Active",1,"Gastrointestinal disorders","Nausea",1,"N","NONE","N",324
"SUBJ-0246","Active",1,"Skin and subcutaneous tissue disorders","Pruritus",1,"N","NONE","Y",459
"SUBJ-0246","Active",1,"Blood and lymphatic system disorders","Thrombocytopenia",2,"N","NONE","N",470
"SUBJ-0246","Active",1,"Skin and subcutaneous tissue disorders","Rash",1,"N","NONE","Y",474
"SUBJ-0246","Active",1,"Gastrointestinal disorders","Vomiting",1,"N","NONE","N",547
"SUBJ-0247","Active",1,"Metabolic disorders","Hypothyroidism",1,"N","NONE","Y",2
"SUBJ-0247","Active",1,"Gastrointestinal disorders","Vomiting",3,"Y","DOSE_REDUCTION","N",65
"SUBJ-0247","Active",1,"Investigations","Alanine aminotransferase increased",1,"N","NONE","Y",123
"SUBJ-0247","Active",1,"Gastrointestinal disorders","Nausea",1,"N","NONE","N",180
"SUBJ-0247","Active",1,"Blood and lymphatic system disorders","Neutropenia",3,"N","NONE","N",244
"SUBJ-0248","Active",1,"Blood and lymphatic system disorders","Neutropenia",2,"N","DOSE_REDUCTION","N",38
"SUBJ-0248","Active",1,"Skin and subcutaneous tissue disorders","Rash",1,"N","DOSE_REDUCTION","N",91
"SUBJ-0248","Active",1,"Gastrointestinal disorders","Diarrhoea",2,"N","NONE","Y",230
"SUBJ-0248","Active",1,"Gastrointestinal disorders","Vomiting",1,"N","NONE","N",233
"SUBJ-0249","Active",1,"Blood and lymphatic system disorders","Thrombocytopenia",2,"N","NONE","N",2
"SUBJ-0249","Active",1,"Gastrointestinal disorders","Nausea",1,"N","NONE","N",57
"SUBJ-0249","Active",1,"Blood and lymphatic system disorders","Anaemia",3,"N","NONE","N",69
"SUBJ-0249","Active",1,"Respiratory disorders","Cough",3,"N","NONE","N",118
"SUBJ-0249","Active",1,"Gastrointestinal disorders","Diarrhoea",3,"N","DRUG_WITHDRAWN","N",130
"SUBJ-0250","Active",1,"Skin and subcutaneous tissue disorders","Rash",3,"N","NONE","Y",79
"SUBJ-0250","Active",1,"Hepatobiliary disorders","Drug-induced liver injury",3,"N","DRUG_WITHDRAWN","N",104
"SUBJ-0250","Active",1,"Investigations","Alanine aminotransferase increased",1,"N","NONE","Y",199
"SUBJ-0250","Active",1,"Respiratory disorders","Cough",1,"N","NONE","N",233
"SUBJ-0250","Active",1,"Nervous system disorders","Peripheral neuropathy",1,"N","NONE","N",258
"SUBJ-0250","Active",1,"Gastrointestinal disorders","Decreased appetite",1,"N","NONE","N",276
"SUBJ-0250","Active",1,"Gastrointestinal disorders","Nausea",2,"N","NONE","N",307
"SUBJ-0251","Active",1,"General disorders","Fatigue",1,"N","NONE","N",50
"SUBJ-0251","Active",1,"Gastrointestinal disorders","Decreased appetite",1,"N","NONE","N",54
"SUBJ-0251","Active",1,"Blood and lymphatic system disorders","Neutropenia",2,"N","NONE","N",132
"SUBJ-0251","Active",1,"Skin and subcutaneous tissue disorders","Pruritus",2,"N","NONE","Y",145
"SUBJ-0251","Active",1,"Metabolic disorders","Hypothyroidism",1,"N","NONE","Y",179
"SUBJ-0251","Active",1,"Investigations","Alanine aminotransferase increased",1,"N","NONE","Y",193
"SUBJ-0251","Active",1,"General disorders","Pyrexia",1,"N","NONE","N",222
"SUBJ-0251","Active",1,"Gastrointestinal disorders","Diarrhoea",3,"Y","DRUG_WITHDRAWN","Y",250
"SUBJ-0251","Active",1,"Investigations","Aspartate aminotransferase increased",2,"N","NONE","N",252
"SUBJ-0251","Active",1,"Blood and lymphatic system disorders","Thrombocytopenia",4,"Y","DOSE_REDUCTION","N",269
"SUBJ-0252","Active",1,"General disorders","Fatigue",1,"N","NONE","N",8
"SUBJ-0252","Active",1,"Blood and lymphatic system disorders","Anaemia",2,"N","DOSE_REDUCTION","N",188
"SUBJ-0252","Active",1,"Gastrointestinal disorders","Vomiting",1,"N","NONE","N",251
"SUBJ-0252","Active",1,"Investigations","Alanine aminotransferase increased",1,"N","NONE","N",277
"SUBJ-0252","Active",1,"Gastrointestinal disorders","Diarrhoea",1,"N","NONE","N",318
"SUBJ-0252","Active",1,"Gastrointestinal disorders","Nausea",1,"N","NONE","N",384
"SUBJ-0253","Active",1,"General disorders","Fatigue",1,"N","NONE","N",2
"SUBJ-0253","Active",1,"Nervous system disorders","Peripheral neuropathy",2,"N","NONE","N",62
"SUBJ-0253","Active",1,"Blood and lymphatic system disorders","Anaemia",2,"N","NONE","N",180
"SUBJ-0253","Active",1,"Investigations","Alanine aminotransferase increased",2,"N","NONE","N",209
"SUBJ-0253","Active",1,"General disorders","Pyrexia",2,"N","NONE","N",210
"SUBJ-0253","Active",1,"Gastrointestinal disorders","Decreased appetite",2,"N","NONE","N",248
"SUBJ-0253","Active",1,"Renal and urinary disorders","Acute kidney injury",2,"N","NONE","N",302
"SUBJ-0254","Active",1,"Investigations","Blood bilirubin increased",2,"N","NONE","N",12
"SUBJ-0254","Active",1,"Blood and lymphatic system disorders","Neutropenia",2,"N","DOSE_REDUCTION","N",100
"SUBJ-0254","Active",1,"Gastrointestinal disorders","Diarrhoea",3,"Y","NONE","N",191
"SUBJ-0254","Active",1,"General disorders","Fatigue",1,"N","NONE","N",242
"SUBJ-0254","Active",1,"Investigations","Aspartate aminotransferase increased",1,"N","NONE","Y",285
"SUBJ-0254","Active",1,"General disorders","Death",5,"Y","DRUG_WITHDRAWN","N",442
"SUBJ-0255","Active",1,"Investigations","Aspartate aminotransferase increased",2,"N","NONE","Y",174
"SUBJ-0255","Active",1,"Blood and lymphatic system disorders","Neutropenia",3,"N","DRUG_WITHDRAWN","N",262
"SUBJ-0255","Active",1,"Nervous system disorders","Headache",1,"N","DOSE_REDUCTION","N",341
"SUBJ-0255","Active",1,"Cardiac disorders","Atrial fibrillation",3,"Y","NONE","N",373
"SUBJ-0255","Active",1,"Blood and lymphatic system disorders","Anaemia",2,"N","NONE","N",388
"SUBJ-0255","Active",1,"Skin and subcutaneous tissue disorders","Pruritus",3,"N","NONE","N",435
"SUBJ-0255","Active",1,"Gastrointestinal disorders","Diarrhoea",1,"N","NONE","Y",463
"SUBJ-0256","Active",1,"General disorders","Pyrexia",2,"N","NONE","N",8
"SUBJ-0256","Active",1,"Blood and lymphatic system disorders","Thrombocytopenia",2,"N","NONE","N",91
"SUBJ-0256","Active",1,"Gastrointestinal disorders","Diarrhoea",1,"N","DOSE_REDUCTION","Y",126
"SUBJ-0256","Active",1,"General disorders","Fatigue",1,"N","NONE","N",183
"SUBJ-0256","Active",1,"Gastrointestinal disorders","Nausea",1,"N","NONE","N",211
"SUBJ-0256","Active",1,"Nervous system disorders","Headache",1,"N","NONE","N",254
"SUBJ-0257","Active",1,"Gastrointestinal disorders","Diarrhoea",1,"N","NONE","N",57
"SUBJ-0257","Active",1,"Skin and subcutaneous tissue disorders","Rash",2,"N","NONE","N",112
"SUBJ-0258","Active",1,"Investigations","Alanine aminotransferase increased",1,"N","NONE","Y",108
"SUBJ-0258","Active",1,"General disorders","Fatigue",2,"N","NONE","N",196
"SUBJ-0258","Active",1,"Blood and lymphatic system disorders","Neutropenia",2,"N","DOSE_REDUCTION","N",341
"SUBJ-0258","Active",1,"Nervous system disorders","Headache",2,"N","NONE","N",352
"SUBJ-0259","Active",1,"General disorders","Fatigue",2,"N","NONE","N",26
"SUBJ-0259","Active",1,"Skin and subcutaneous tissue disorders","Pruritus",2,"N","NONE","Y",52
"SUBJ-0259","Active",1,"Gastrointestinal disorders","Vomiting",1,"N","DOSE_REDUCTION","N",62
"SUBJ-0259","Active",1,"Gastrointestinal disorders","Decreased appetite",1,"N","NONE","N",91
"SUBJ-0259","Active",1,"Blood and lymphatic system disorders","Anaemia",2,"N","NONE","N",211
"SUBJ-0259","Active",1,"Blood and lymphatic system disorders","Neutropenia",3,"Y","NONE","N",269
"SUBJ-0260","Active",1,"Metabolic disorders","Hypothyroidism",2,"N","NONE","Y",52
"SUBJ-0260","Active",1,"General disorders","Fatigue",1,"N","NONE","N",53
"SUBJ-0260","Active",1,"Nervous system disorders","Headache",1,"N","NONE","N",280
"SUBJ-0260","Active",1,"Skin and subcutaneous tissue disorders","Pruritus",1,"N","NONE","Y",308
"SUBJ-0260","Active",1,"Blood and lymphatic system disorders","Anaemia",3,"N","DOSE_REDUCTION","N",329
"SUBJ-0261","Active",1,"Skin and subcutaneous tissue disorders","Rash",1,"N","NONE","Y",17
"SUBJ-0261","Active",1,"Metabolic disorders","Hypothyroidism",2,"N","NONE","Y",431
"SUBJ-0261","Active",1,"Gastrointestinal disorders","Nausea",1,"N","NONE","N",432
"SUBJ-0262","Active",1,"Blood and lymphatic system disorders","Thrombocytopenia",3,"Y","NONE","N",14
"SUBJ-0262","Active",1,"Gastrointestinal disorders","Decreased appetite",1,"N","NONE","N",15
"SUBJ-0262","Active",1,"Investigations","Aspartate aminotransferase increased",3,"N","NONE","Y",43
"SUBJ-0262","Active",1,"Metabolic disorders","Hypothyroidism",3,"N","DOSE_REDUCTION","Y",45
"SUBJ-0262","Active",1,"Skin and subcutaneous tissue disorders","Rash",1,"N","NONE","Y",79
"SUBJ-0262","Active",1,"Blood and lymphatic system disorders","Neutropenia",2,"N","NONE","N",117
"SUBJ-0262","Active",1,"Gastrointestinal disorders","Nausea",1,"N","NONE","N",149
"SUBJ-0262","Active",1,"Gastrointestinal disorders","Vomiting",1,"N","NONE","N",156
"SUBJ-0262","Active",1,"Blood and lymphatic system disorders","Anaemia",3,"Y","NONE","N",164
"SUBJ-0262","Active",1,"General disorders","Fatigue",2,"N","NONE","N",205
"SUBJ-0263","Active",1,"Metabolic disorders","Hypothyroidism",1,"N","NONE","Y",9
"SUBJ-0263","Active",1,"General disorders","Fatigue",1,"N","NONE","N",422
"SUBJ-0264","Active",1,"Gastrointestinal disorders","Vomiting",2,"N","NONE","N",92
"SUBJ-0264","Active",1,"General disorders","Fatigue",2,"N","NONE","N",144
"SUBJ-0264","Active",1,"Gastrointestinal disorders","Nausea",2,"N","NONE","N",162
"SUBJ-0264","Active",1,"Investigations","Blood bilirubin increased",2,"N","NONE","N",177
"SUBJ-0264","Active",1,"General disorders","Pyrexia",1,"N","NONE","N",188
"SUBJ-0265","Active",1,"Gastrointestinal disorders","Nausea",2,"N","NONE","N",124
"SUBJ-0265","Active",1,"Skin and subcutaneous tissue disorders","Rash",1,"N","NONE","Y",173
"SUBJ-0265","Active",1,"General disorders","Fatigue",1,"N","NONE","N",231
"SUBJ-0265","Active",1,"Gastrointestinal disorders","Diarrhoea",1,"N","NONE","N",306
"SUBJ-0265","Active",1,"Skin and subcutaneous tissue disorders","Pruritus",1,"N","DOSE_REDUCTION","Y",345
"SUBJ-0265","Active",1,"Nervous system disorders","Headache",2,"N","NONE","N",407
"SUBJ-0266","Active",1,"Gastrointestinal disorders","Nausea",2,"N","NONE","N",187
"SUBJ-0266","Active",1,"General disorders","Fatigue",3,"N","NONE","N",385
"SUBJ-0266","Active",1,"Gastrointestinal disorders","Vomiting",1,"N","NONE","N",408
"SUBJ-0267","Active",1,"Nervous system disorders","Headache",1,"N","NONE","N",5
"SUBJ-0267","Active",1,"Gastrointestinal disorders","Diarrhoea",1,"N","NONE","Y",54
"SUBJ-0267","Active",1,"Gastrointestinal disorders","Decreased appetite",1,"N","NONE","N",57
"SUBJ-0267","Active",1,"General disorders","Fatigue",1,"N","NONE","N",78
"SUBJ-0267","Active",1,"Gastrointestinal disorders","Nausea",3,"Y","NONE","N",93
"SUBJ-0268","Active",1,"Blood and lymphatic system disorders","Neutropenia",2,"N","NONE","N",252
"SUBJ-0269","Active",1,"Gastrointestinal disorders","Nausea",2,"N","NONE","N",20
"SUBJ-0269","Active",1,"Skin and subcutaneous tissue disorders","Rash",2,"N","NONE","Y",29
"SUBJ-0269","Active",1,"Blood and lymphatic system disorders","Neutropenia",2,"N","NONE","N",148
"SUBJ-0269","Active",1,"Gastrointestinal disorders","Decreased appetite",1,"N","NONE","N",170
"SUBJ-0270","Active",1,"Blood and lymphatic system disorders","Neutropenia",3,"N","DOSE_REDUCTION","N",201
"SUBJ-0270","Active",1,"General disorders","Fatigue",1,"N","NONE","N",283
"SUBJ-0271","Active",1,"Blood and lymphatic system disorders","Neutropenia",3,"N","NONE","N",53
"SUBJ-0271","Active",1,"Gastrointestinal disorders","Nausea",1,"N","NONE","N",204
"SUBJ-0271","Active",1,"Investigations","Alanine aminotransferase increased",1,"N","NONE","Y",220
"SUBJ-0271","Active",1,"Gastrointestinal disorders","Decreased appetite",1,"N","DOSE_REDUCTION","N",227
"SUBJ-0271","Active",1,"General disorders","Fatigue",2,"N","NONE","N",337
"SUBJ-0272","Active",1,"Gastrointestinal disorders","Vomiting",1,"N","NONE","N",98
"SUBJ-0272","Active",1,"Investigations","Alanine aminotransferase increased",2,"N","NONE","Y",109
"SUBJ-0272","Active",1,"General disorders","Pyrexia",1,"N","NONE","N",313
"SUBJ-0272","Active",1,"Nervous system disorders","Headache",1,"N","NONE","N",386
"SUBJ-0272","Active",1,"Renal and urinary disorders","Acute kidney injury",3,"N","NONE","N",411
"SUBJ-0273","Active",1,"Skin and subcutaneous tissue disorders","Pruritus",1,"N","NONE","Y",155
"SUBJ-0273","Active",1,"Gastrointestinal disorders","Decreased appetite",1,"N","NONE","N",340
"SUBJ-0273","Active",1,"Gastrointestinal disorders","Nausea",1,"N","NONE","N",360
"SUBJ-0273","Active",1,"General disorders","Fatigue",1,"N","NONE","N",405
"SUBJ-0274","Active",1,"Skin and subcutaneous tissue disorders","Rash",3,"Y","NONE","Y",13
"SUBJ-0274","Active",1,"Gastrointestinal disorders","Nausea",2,"N","NONE","N",165
"SUBJ-0274","Active",1,"Investigations","Alanine aminotransferase increased",3,"N","NONE","Y",226
"SUBJ-0274","Active",1,"Gastrointestinal disorders","Diarrhoea",2,"N","NONE","Y",241
"SUBJ-0275","Active",1,"Gastrointestinal disorders","Decreased appetite",1,"N","NONE","N",37
"SUBJ-0275","Active",1,"Investigations","Aspartate aminotransferase increased",2,"N","NONE","Y",61
"SUBJ-0275","Active",1,"General disorders","Fatigue",3,"N","DRUG_WITHDRAWN","N",194
"SUBJ-0275","Active",1,"Hepatobiliary disorders","Drug-induced liver injury",3,"N","NONE","N",204
"SUBJ-0275","Active",1,"Investigations","Blood bilirubin increased",2,"N","NONE","N",225
"SUBJ-0275","Active",1,"Blood and lymphatic system disorders","Anaemia",3,"Y","NONE","N",231
"SUBJ-0275","Active",1,"Nervous system disorders","Headache",2,"N","NONE","N",252
"SUBJ-0276","Active",1,"Blood and lymphatic system disorders","Thrombocytopenia",2,"N","DOSE_REDUCTION","N",12
"SUBJ-0276","Active",1,"Gastrointestinal disorders","Diarrhoea",1,"N","NONE","Y",40
"SUBJ-0276","Active",1,"Blood and lymphatic system disorders","Anaemia",3,"Y","DRUG_WITHDRAWN","N",199
"SUBJ-0276","Active",1,"Investigations","Alanine aminotransferase increased",1,"N","NONE","N",330
"SUBJ-0276","Active",1,"Gastrointestinal disorders","Nausea",1,"N","NONE","N",361
"SUBJ-0277","Active",1,"General disorders","Fatigue",2,"N","NONE","N",34
"SUBJ-0277","Active",1,"Nervous system disorders","Peripheral neuropathy",3,"N","NONE","N",82
"SUBJ-0277","Active",1,"Nervous system disorders","Headache",2,"N","NONE","N",102
"SUBJ-0277","Active",1,"Investigations","Aspartate aminotransferase increased",1,"N","DOSE_REDUCTION","Y",114
"SUBJ-0278","Active",1,"Blood and lymphatic system disorders","Anaemia",3,"Y","NONE","N",26
"SUBJ-0278","Active",1,"Skin and subcutaneous tissue disorders","Pruritus",1,"N","NONE","N",175
"SUBJ-0278","Active",1,"Gastrointestinal disorders","Nausea",1,"N","NONE","N",181
"SUBJ-0278","Active",1,"Nervous system disorders","Peripheral neuropathy",3,"Y","DRUG_WITHDRAWN","N",187
"SUBJ-0278","Active",1,"Investigations","Alanine aminotransferase increased",1,"N","DOSE_REDUCTION","Y",192
"SUBJ-0278","Active",1,"General disorders","Fatigue",2,"N","NONE","N",262
"SUBJ-0279","Active",1,"Hepatobiliary disorders","Drug-induced liver injury",3,"Y","DOSE_REDUCTION","N",99
"SUBJ-0279","Active",1,"Blood and lymphatic system disorders","Anaemia",2,"N","NONE","N",124
"SUBJ-0279","Active",1,"Gastrointestinal disorders","Nausea",2,"N","NONE","N",259
"SUBJ-0279","Active",1,"Nervous system disorders","Headache",1,"N","NONE","N",285
"SUBJ-0279","Active",1,"Respiratory disorders","Cough",1,"N","NONE","N",301
"SUBJ-0279","Active",1,"Gastrointestinal disorders","Diarrhoea",1,"N","NONE","N",389
"SUBJ-0279","Active",1,"Gastrointestinal disorders","Decreased appetite",1,"N","NONE","N",520
"SUBJ-0280","Active",1,"Respiratory disorders","Cough",2,"N","NONE","N",10
"SUBJ-0280","Active",1,"Gastrointestinal disorders","Vomiting",1,"N","NONE","N",16
"SUBJ-0280","Active",1,"General disorders","Pyrexia",1,"N","NONE","N",122
"SUBJ-0280","Active",1,"Investigations","Blood bilirubin increased",1,"N","NONE","N",320
"SUBJ-0280","Active",1,"Renal and urinary disorders","Acute kidney injury",3,"Y","NONE","N",361
"SUBJ-0281","Active",1,"Metabolic disorders","Hypothyroidism",2,"N","NONE","Y",131
"SUBJ-0281","Active",1,"Gastrointestinal disorders","Decreased appetite",3,"N","DRUG_WITHDRAWN","N",273
"SUBJ-0281","Active",1,"Gastrointestinal disorders","Diarrhoea",2,"N","DOSE_REDUCTION","Y",458
"SUBJ-0281","Active",1,"Skin and subcutaneous tissue disorders","Rash",2,"N","NONE","Y",465
"SUBJ-0281","Active",1,"Blood and lymphatic system disorders","Anaemia",2,"N","NONE","N",472
"SUBJ-0282","Active",1,"Gastrointestinal disorders","Nausea",1,"N","DOSE_REDUCTION","N",104
"SUBJ-0282","Active",1,"Nervous system disorders","Headache",1,"N","DOSE_REDUCTION","N",224
"SUBJ-0282","Active",1,"Investigations","Alanine aminotransferase increased",1,"N","NONE","Y",230
"SUBJ-0282","Active",1,"Gastrointestinal disorders","Vomiting",1,"N","NONE","N",261
"SUBJ-0283","Active",1,"Gastrointestinal disorders","Diarrhoea",2,"N","NONE","Y",138
"SUBJ-0283","Active",1,"Nervous system disorders","Headache",3,"Y","NONE","N",198
"SUBJ-0283","Active",1,"Respiratory disorders","Cough",1,"N","NONE","N",367
"SUBJ-0284","Active",1,"Skin and subcutaneous tissue disorders","Rash",1,"N","NONE","Y",101
"SUBJ-0284","Active",1,"Gastrointestinal disorders","Nausea",3,"Y","DRUG_WITHDRAWN","N",159
"SUBJ-0284","Active",1,"Nervous system disorders","Peripheral neuropathy",2,"N","NONE","N",168
"SUBJ-0284","Active",1,"Nervous system disorders","Headache",3,"N","NONE","N",211
"SUBJ-0284","Active",1,"Cardiac disorders","QT prolongation",2,"N","NONE","N",342
"SUBJ-0284","Active",1,"Gastrointestinal disorders","Decreased appetite",1,"N","NONE","N",436
"SUBJ-0285","Active",1,"General disorders","Fatigue",1,"N","NONE","N",73
"SUBJ-0285","Active",1,"Gastrointestinal disorders","Nausea",1,"N","NONE","N",139
"SUBJ-0285","Active",1,"Skin and subcutaneous tissue disorders","Rash",2,"N","NONE","Y",202
"SUBJ-0285","Active",1,"Cardiac disorders","Atrial fibrillation",2,"N","NONE","N",403
"SUBJ-0285","Active",1,"Skin and subcutaneous tissue disorders","Pruritus",1,"N","NONE","Y",421
"SUBJ-0286","Active",1,"Investigations","Alanine aminotransferase increased",1,"N","NONE","Y",3
"SUBJ-0286","Active",1,"Gastrointestinal disorders","Diarrhoea",2,"N","NONE","Y",139
"SUBJ-0287","Active",1,"Gastrointestinal disorders","Diarrhoea",3,"Y","DOSE_REDUCTION","N",10
"SUBJ-0287","Active",1,"Blood and lymphatic system disorders","Anaemia",2,"N","NONE","N",13
"SUBJ-0287","Active",1,"General disorders","Fatigue",1,"N","NONE","N",33
"SUBJ-0288","Active",1,"General disorders","Fatigue",2,"N","NONE","N",13
"SUBJ-0288","Active",1,"General disorders","Pyrexia",1,"N","DOSE_REDUCTION","N",61
"SUBJ-0288","Active",1,"Gastrointestinal disorders","Diarrhoea",1,"N","DOSE_REDUCTION","Y",210
"SUBJ-0289","Active",1,"Gastrointestinal disorders","Decreased appetite",1,"N","NONE","N",73
"SUBJ-0289","Active",1,"Gastrointestinal disorders","Nausea",1,"N","NONE","N",94
"SUBJ-0289","Active",1,"Investigations","Alanine aminotransferase increased",2,"N","NONE","Y",106
"SUBJ-0289","Active",1,"Gastrointestinal disorders","Vomiting",1,"N","NONE","N",120
"SUBJ-0289","Active",1,"Metabolic disorders","Hypothyroidism",1,"N","NONE","Y",225
"SUBJ-0290","Active",1,"Gastrointestinal disorders","Vomiting",2,"N","NONE","N",29
"SUBJ-0290","Active",1,"Metabolic disorders","Hypothyroidism",1,"N","NONE","Y",46
"SUBJ-0290","Active",1,"Respiratory disorders","Cough",1,"N","DOSE_REDUCTION","N",190
"SUBJ-0290","Active",1,"Nervous system disorders","Peripheral neuropathy",2,"N","NONE","N",205
"SUBJ-0290","Active",1,"General disorders","Fatigue",3,"Y","DRUG_WITHDRAWN","N",427
"SUBJ-0291","Active",1,"Gastrointestinal disorders","Vomiting",2,"N","NONE","N",30
"SUBJ-0291","Active",1,"General disorders","Fatigue",1,"N","NONE","N",71
"SUBJ-0291","Active",1,"Gastrointestinal disorders","Nausea",2,"N","NONE","N",151
"SUBJ-0291","Active",1,"Investigations","Alanine aminotransferase increased",1,"N","NONE","Y",161
"SUBJ-0291","Active",1,"Skin and subcutaneous tissue disorders","Rash",2,"N","NONE","Y",163
"SUBJ-0291","Active",1,"Blood and lymphatic system disorders","Thrombocytopenia",3,"Y","NONE","N",171
"SUBJ-0291","Active",1,"Gastrointestinal disorders","Decreased appetite",1,"N","NONE","N",182
"SUBJ-0291","Active",1,"Respiratory disorders","Cough",1,"N","NONE","N",228
"SUBJ-0292","Active",1,"Gastrointestinal disorders","Nausea",1,"N","DOSE_REDUCTION","N",6
"SUBJ-0292","Active",1,"General disorders","Fatigue",1,"N","DOSE_REDUCTION","N",39
"SUBJ-0292","Active",1,"Nervous system disorders","Peripheral neuropathy",1,"N","NONE","N",86
"SUBJ-0292","Active",1,"Blood and lymphatic system disorders","Thrombocytopenia",2,"N","NONE","N",147
"SUBJ-0292","Active",1,"Investigations","Blood bilirubin increased",2,"N","NONE","N",162
"SUBJ-0292","Active",1,"Gastrointestinal disorders","Vomiting",2,"N","NONE","N",253
"SUBJ-0292","Active",1,"Skin and subcutaneous tissue disorders","Pruritus",1,"N","NONE","N",304
"SUBJ-0292","Active",1,"Skin and subcutaneous tissue disorders","Rash",1,"N","NONE","Y",384
"SUBJ-0293","Active",1,"Nervous system disorders","Headache",2,"N","NONE","N",13
"SUBJ-0293","Active",1,"Respiratory disorders","Cough",1,"N","NONE","N",81
"SUBJ-0293","Active",1,"General disorders","Fatigue",1,"N","DOSE_REDUCTION","N",167
"SUBJ-0293","Active",1,"Blood and lymphatic system disorders","Thrombocytopenia",2,"N","NONE","N",210
"SUBJ-0293","Active",1,"General disorders","Pyrexia",2,"N","NONE","N",253
"SUBJ-0293","Active",1,"Gastrointestinal disorders","Nausea",3,"N","NONE","N",288
"SUBJ-0293","Active",1,"Investigations","Aspartate aminotransferase increased",2,"N","NONE","Y",315
"SUBJ-0294","Active",1,"Investigations","Aspartate aminotransferase increased",1,"N","NONE","N",35
"SUBJ-0294","Active",1,"Blood and lymphatic system disorders","Thrombocytopenia",2,"N","NONE","N",58
"SUBJ-0294","Active",1,"Respiratory disorders","Cough",1,"N","DOSE_REDUCTION","N",222
"SUBJ-0294","Active",1,"Gastrointestinal disorders","Vomiting",2,"N","NONE","N",404
"SUBJ-0294","Active",1,"Gastrointestinal disorders","Diarrhoea",3,"Y","NONE","N",576
"SUBJ-0295","Active",1,"Skin and subcutaneous tissue disorders","Rash",3,"Y","NONE","Y",59
"SUBJ-0295","Active",1,"Gastrointestinal disorders","Decreased appetite",3,"N","DOSE_REDUCTION","N",290
"SUBJ-0295","Active",1,"Investigations","Aspartate aminotransferase increased",3,"N","DOSE_REDUCTION","Y",305
"SUBJ-0295","Active",1,"Investigations","Blood bilirubin increased",2,"N","NONE","N",380
"SUBJ-0295","Active",1,"Gastrointestinal disorders","Diarrhoea",2,"N","NONE","Y",402
"SUBJ-0296","Active",1,"Investigations","Aspartate aminotransferase increased",1,"N","NONE","Y",43
"SUBJ-0296","Active",1,"General disorders","Fatigue",2,"N","NONE","N",72
"SUBJ-0296","Active",1,"Respiratory disorders","Cough",1,"N","NONE","N",106
"SUBJ-0296","Active",1,"Blood and lymphatic system disorders","Anaemia",2,"N","NONE","N",120
"SUBJ-0296","Active",1,"Gastrointestinal disorders","Nausea",1,"N","NONE","N",127
"SUBJ-0296","Active",1,"Blood and lymphatic system disorders","Neutropenia",2,"N","NONE","N",177
"SUBJ-0296","Active",1,"Investigations","Alanine aminotransferase increased",1,"N","NONE","N",244
"SUBJ-0296","Active",1,"Skin and subcutaneous tissue disorders","Rash",2,"N","NONE","N",258
"SUBJ-0296","Active",1,"Investigations","Blood bilirubin increased",1,"N","NONE","N",259
"SUBJ-0296","Active",1,"Metabolic disorders","Hypothyroidism",3,"N","DOSE_REDUCTION","Y",358
"SUBJ-0297","Active",1,"Nervous system disorders","Peripheral neuropathy",3,"N","DOSE_REDUCTION","N",202
"SUBJ-0297","Active",1,"Investigations","Alanine aminotransferase increased",3,"N","DOSE_REDUCTION","Y",222
"SUBJ-0297","Active",1,"Skin and subcutaneous tissue disorders","Pruritus",1,"N","DOSE_REDUCTION","Y",302
"SUBJ-0297","Active",1,"Gastrointestinal disorders","Nausea",2,"N","NONE","N",325
"SUBJ-0297","Active",1,"Investigations","Blood bilirubin increased",1,"N","NONE","N",342
"SUBJ-0297","Active",1,"Skin and subcutaneous tissue disorders","Rash",1,"N","NONE","Y",373
"SUBJ-0297","Active",1,"Gastrointestinal disorders","Vomiting",1,"N","DOSE_REDUCTION","N",382
"SUBJ-0297","Active",1,"General disorders","Fatigue",1,"N","NONE","N",390
"SUBJ-0298","Active",1,"Hepatobiliary disorders","Drug-induced liver injury",5,"Y","DRUG_WITHDRAWN","N",96
"SUBJ-0298","Active",1,"Skin and subcutaneous tissue disorders","Rash",2,"N","NONE","Y",103
"SUBJ-0298","Active",1,"Respiratory disorders","Cough",1,"N","NONE","N",158
"SUBJ-0298","Active",1,"General disorders","Pyrexia",1,"N","NONE","N",219
"SUBJ-0298","Active",1,"Skin and subcutaneous tissue disorders","Pruritus",1,"N","NONE","N",230
"SUBJ-0298","Active",1,"Cardiac disorders","QT prolongation",2,"N","NONE","N",366
"SUBJ-0298","Active",1,"General disorders","Fatigue",2,"N","NONE","N",407
"SUBJ-0298","Active",1,"Gastrointestinal disorders","Nausea",3,"N","DRUG_WITHDRAWN","N",446
"SUBJ-0298","Active",1,"Nervous system disorders","Headache",1,"N","NONE","N",469
"SUBJ-0299","Active",1,"Skin and subcutaneous tissue disorders","Pruritus",2,"N","NONE","Y",12
"SUBJ-0299","Active",1,"Gastrointestinal disorders","Vomiting",2,"N","NONE","N",26
"SUBJ-0299","Active",1,"Gastrointestinal disorders","Decreased appetite",1,"N","NONE","N",100
"SUBJ-0299","Active",1,"General disorders","Fatigue",1,"N","NONE","N",109
"SUBJ-0299","Active",1,"Nervous system disorders","Peripheral neuropathy",1,"N","DOSE_REDUCTION","N",114
"SUBJ-0300","Active",1,"General disorders","Pyrexia",1,"N","DOSE_REDUCTION","N",20
"SUBJ-0300","Active",1,"Renal and urinary disorders","Acute kidney injury",3,"N","DOSE_REDUCTION","N",28
"SUBJ-0300","Active",1,"Gastrointestinal disorders","Nausea",1,"N","DOSE_REDUCTION","N",85
"SUBJ-0300","Active",1,"Gastrointestinal disorders","Diarrhoea",1,"N","NONE","Y",213
"SUBJ-0300","Active",1,"General disorders","Fatigue",2,"N","NONE","N",265
"SUBJ-0300","Active",1,"Blood and lymphatic system disorders","Thrombocytopenia",3,"N","DOSE_REDUCTION","N",267
"SUBJ-0301","Active",1,"Blood and lymphatic system disorders","Thrombocytopenia",3,"Y","DRUG_WITHDRAWN","N",26
"SUBJ-0301","Active",1,"Nervous system disorders","Headache",2,"N","NONE","N",128
"SUBJ-0301","Active",1,"Skin and subcutaneous tissue disorders","Rash",3,"N","NONE","Y",130
"SUBJ-0302","Active",1,"Skin and subcutaneous tissue disorders","Rash",1,"N","NONE","Y",84
"SUBJ-0302","Active",1,"Metabolic disorders","Hypothyroidism",1,"N","NONE","N",85
"SUBJ-0302","Active",1,"Skin and subcutaneous tissue disorders","Pruritus",2,"N","NONE","Y",474
"SUBJ-0303","Active",1,"Gastrointestinal disorders","Diarrhoea",2,"N","NONE","N",20
"SUBJ-0303","Active",1,"General disorders","Fatigue",1,"N","DOSE_REDUCTION","N",22
"SUBJ-0303","Active",1,"Hepatobiliary disorders","Drug-induced liver injury",3,"N","DOSE_REDUCTION","N",70
"SUBJ-0303","Active",1,"Cardiac disorders","QT prolongation",2,"N","DOSE_REDUCTION","N",88
"SUBJ-0303","Active",1,"Skin and subcutaneous tissue disorders","Pruritus",2,"N","NONE","Y",219
"SUBJ-0303","Active",1,"Nervous system disorders","Headache",2,"N","DOSE_REDUCTION","N",239
"SUBJ-0303","Active",1,"Blood and lymphatic system disorders","Thrombocytopenia",2,"N","NONE","N",264
"SUBJ-0303","Active",1,"Blood and lymphatic system disorders","Anaemia",2,"N","DOSE_REDUCTION","N",294
"SUBJ-0303","Active",1,"General disorders","Death",5,"Y","DRUG_WITHDRAWN","N",429
"SUBJ-0304","Active",1,"General disorders","Fatigue",3,"N","NONE","N",222
"SUBJ-0304","Active",1,"Skin and subcutaneous tissue disorders","Rash",1,"N","NONE","Y",275
"SUBJ-0304","Active",1,"Gastrointestinal disorders","Nausea",2,"N","DOSE_REDUCTION","N",315
"SUBJ-0304","Active",1,"Skin and subcutaneous tissue disorders","Pruritus",2,"N","NONE","Y",470
"SUBJ-0305","Active",1,"Blood and lymphatic system disorders","Thrombocytopenia",3,"Y","NONE","N",189
"SUBJ-0306","Active",1,"Blood and lymphatic system disorders","Thrombocytopenia",3,"Y","NONE","N",6
"SUBJ-0306","Active",1,"Skin and subcutaneous tissue disorders","Rash",1,"N","NONE","Y",36
"SUBJ-0306","Active",1,"Gastrointestinal disorders","Nausea",1,"N","NONE","N",393
"SUBJ-0306","Active",1,"Blood and lymphatic system disorders","Anaemia",2,"N","DOSE_REDUCTION","N",396
"SUBJ-0307","Active",1,"Gastrointestinal disorders","Decreased appetite",1,"N","NONE","N",28
"SUBJ-0307","Active",1,"Gastrointestinal disorders","Vomiting",1,"N","NONE","N",165
"SUBJ-0307","Active",1,"Blood and lymphatic system disorders","Anaemia",2,"N","DOSE_REDUCTION","N",258
"SUBJ-0307","Active",1,"Respiratory disorders","Cough",1,"N","NONE","N",370
"SUBJ-0307","Active",1,"Nervous system disorders","Headache",3,"N","DOSE_REDUCTION","N",372
"SUBJ-0307","Active",1,"General disorders","Pyrexia",1,"N","NONE","N",435
"SUBJ-0308","Active",1,"Nervous system disorders","Headache",1,"N","NONE","N",57
"SUBJ-0308","Active",1,"General disorders","Pyrexia",1,"N","NONE","N",59
"SUBJ-0308","Active",1,"Blood and lymphatic system disorders","Neutropenia",4,"Y","DOSE_REDUCTION","N",76
"SUBJ-0308","Active",1,"Investigations","Blood bilirubin increased",1,"N","NONE","N",100
"SUBJ-0308","Active",1,"Gastrointestinal disorders","Diarrhoea",1,"N","NONE","Y",163
"SUBJ-0308","Active",1,"Renal and urinary disorders","Acute kidney injury",4,"Y","DRUG_WITHDRAWN","N",207
"SUBJ-0308","Active",1,"Gastrointestinal disorders","Nausea",1,"N","NONE","N",328
"SUBJ-0308","Active",1,"General disorders","Fatigue",1,"N","DOSE_REDUCTION","N",395
"SUBJ-0308","Active",1,"Skin and subcutaneous tissue disorders","Rash",2,"N","NONE","Y",456
"SUBJ-0309","Active",1,"Skin and subcutaneous tissue disorders","Pruritus",1,"N","NONE","Y",38
"SUBJ-0309","Active",1,"Investigations","Alanine aminotransferase increased",2,"N","NONE","Y",103
"SUBJ-0309","Active",1,"Investigations","Aspartate aminotransferase increased",2,"N","NONE","N",122
"SUBJ-0309","Active",1,"General disorders","Pyrexia",1,"N","NONE","N",154
"SUBJ-0309","Active",1,"Renal and urinary disorders","Acute kidney injury",2,"N","DOSE_REDUCTION","N",160
"SUBJ-0309","Active",1,"Blood and lymphatic system disorders","Neutropenia",2,"N","NONE","N",286
"SUBJ-0309","Active",1,"Gastrointestinal disorders","Diarrhoea",3,"N","DRUG_WITHDRAWN","Y",287
"SUBJ-0309","Active",1,"General disorders","Fatigue",1,"N","NONE","N",292
"SUBJ-0310","Active",1,"Blood and lymphatic system disorders","Anaemia",3,"N","DOSE_REDUCTION","N",41
"SUBJ-0310","Active",1,"Respiratory disorders","Cough",1,"N","NONE","N",51
"SUBJ-0310","Active",1,"Gastrointestinal disorders","Nausea",1,"N","NONE","N",77
"SUBJ-0310","Active",1,"Gastrointestinal disorders","Diarrhoea",1,"N","DOSE_REDUCTION","Y",98
"SUBJ-0310","Active",1,"Gastrointestinal disorders","Vomiting",2,"N","NONE","N",106
"SUBJ-0310","Active",1,"General disorders","Fatigue",1,"N","DOSE_REDUCTION","N",144
"SUBJ-0310","Active",1,"Investigations","Alanine aminotransferase increased",2,"N","NONE","Y",148
"SUBJ-0310","Active",1,"General disorders","Death",5,"Y","DRUG_WITHDRAWN","N",161
"SUBJ-0311","Active",1,"Cardiac disorders","QT prolongation",2,"N","NONE","N",180
"SUBJ-0311","Active",1,"Skin and subcutaneous tissue disorders","Rash",3,"Y","NONE","N",207
"SUBJ-0311","Active",1,"Gastrointestinal disorders","Diarrhoea",1,"N","NONE","N",228
"SUBJ-0311","Active",1,"Investigations","Aspartate aminotransferase increased",1,"N","NONE","Y",301
"SUBJ-0311","Active",1,"Respiratory disorders","Cough",1,"N","NONE","N",320
"SUBJ-0312","Active",1,"General disorders","Fatigue",1,"N","NONE","N",27
"SUBJ-0312","Active",1,"Skin and subcutaneous tissue disorders","Rash",2,"N","NONE","N",30
"SUBJ-0312","Active",1,"Gastrointestinal disorders","Vomiting",2,"N","DOSE_REDUCTION","N",71
"SUBJ-0312","Active",1,"Blood and lymphatic system disorders","Neutropenia",4,"Y","DOSE_REDUCTION","N",112
"SUBJ-0312","Active",1,"Skin and subcutaneous tissue disorders","Pruritus",3,"N","DRUG_WITHDRAWN","Y",215
"SUBJ-0312","Active",1,"Investigations","Blood bilirubin increased",1,"N","NONE","N",271
"SUBJ-0312","Active",1,"General disorders","Pyrexia",1,"N","NONE","N",338
"SUBJ-0312","Active",1,"Investigations","Alanine aminotransferase increased",1,"N","NONE","Y",339
"SUBJ-0313","Active",1,"Gastrointestinal disorders","Vomiting",2,"N","NONE","N",6
"SUBJ-0313","Active",1,"Gastrointestinal disorders","Decreased appetite",2,"N","NONE","N",115
"SUBJ-0313","Active",1,"Blood and lymphatic system disorders","Anaemia",4,"Y","DRUG_WITHDRAWN","N",149
"SUBJ-0313","Active",1,"Blood and lymphatic system disorders","Neutropenia",4,"Y","DRUG_WITHDRAWN","N",165
"SUBJ-0314","Active",1,"Skin and subcutaneous tissue disorders","Rash",3,"N","DOSE_REDUCTION","Y",103
"SUBJ-0314","Active",1,"Blood and lymphatic system disorders","Thrombocytopenia",2,"N","NONE","N",226
"SUBJ-0314","Active",1,"Investigations","Aspartate aminotransferase increased",1,"N","DOSE_REDUCTION","N",250
"SUBJ-0314","Active",1,"Investigations","Alanine aminotransferase increased",3,"Y","DRUG_WITHDRAWN","Y",289
"SUBJ-0314","Active",1,"Gastrointestinal disorders","Diarrhoea",1,"N","DOSE_REDUCTION","N",332
"SUBJ-0315","Active",1,"Blood and lymphatic system disorders","Thrombocytopenia",2,"N","NONE","N",114
"SUBJ-0315","Active",1,"Skin and subcutaneous tissue disorders","Pruritus",1,"N","NONE","Y",184
"SUBJ-0315","Active",1,"Nervous system disorders","Peripheral neuropathy",1,"N","NONE","N",202
"SUBJ-0315","Active",1,"Skin and subcutaneous tissue disorders","Rash",1,"N","NONE","Y",253
"SUBJ-0316","Active",1,"Gastrointestinal disorders","Vomiting",1,"N","NONE","N",5
"SUBJ-0316","Active",1,"Blood and lymphatic system disorders","Neutropenia",3,"N","NONE","N",26
"SUBJ-0316","Active",1,"Gastrointestinal disorders","Nausea",1,"N","NONE","N",292
"SUBJ-0316","Active",1,"Investigations","Alanine aminotransferase increased",2,"N","NONE","Y",378
"SUBJ-0317","Active",1,"General disorders","Pyrexia",3,"N","DRUG_WITHDRAWN","N",8
"SUBJ-0317","Active",1,"Gastrointestinal disorders","Diarrhoea",2,"N","NONE","Y",48
"SUBJ-0317","Active",1,"General disorders","Fatigue",1,"N","NONE","N",135
"SUBJ-0317","Active",1,"Gastrointestinal disorders","Nausea",1,"N","NONE","N",170
"SUBJ-0318","Active",1,"Cardiac disorders","QT prolongation",4,"Y","DRUG_WITHDRAWN","N",126
"SUBJ-0318","Active",1,"Investigations","Aspartate aminotransferase increased",1,"N","DOSE_REDUCTION","Y",156
"SUBJ-0318","Active",1,"Gastrointestinal disorders","Vomiting",1,"N","NONE","N",180
"SUBJ-0318","Active",1,"Renal and urinary disorders","Acute kidney injury",4,"Y","DOSE_REDUCTION","N",241
"SUBJ-0318","Active",1,"Gastrointestinal disorders","Nausea",2,"N","NONE","N",267
"SUBJ-0319","Active",1,"Blood and lymphatic system disorders","Thrombocytopenia",2,"N","NONE","N",1
"SUBJ-0319","Active",1,"General disorders","Fatigue",2,"N","DOSE_REDUCTION","N",8
"SUBJ-0319","Active",1,"Gastrointestinal disorders","Vomiting",3,"Y","NONE","N",59
"SUBJ-0319","Active",1,"Blood and lymphatic system disorders","Anaemia",3,"Y","DOSE_REDUCTION","N",73
"SUBJ-0319","Active",1,"Investigations","Aspartate aminotransferase increased",3,"Y","NONE","Y",189
"SUBJ-0319","Active",1,"Gastrointestinal disorders","Decreased appetite",1,"N","NONE","N",261
"SUBJ-0320","Active",1,"Gastrointestinal disorders","Diarrhoea",1,"N","NONE","Y",137
"SUBJ-0320","Active",1,"Blood and lymphatic system disorders","Neutropenia",2,"N","NONE","N",157
"SUBJ-0320","Active",1,"Nervous system disorders","Peripheral neuropathy",2,"N","NONE","N",180
"SUBJ-0320","Active",1,"Blood and lymphatic system disorders","Anaemia",2,"N","NONE","N",185
"SUBJ-0320","Active",1,"Metabolic disorders","Hypothyroidism",1,"N","NONE","N",203
"SUBJ-0320","Active",1,"Gastrointestinal disorders","Nausea",1,"N","NONE","N",210
"SUBJ-0321","Active",1,"Nervous system disorders","Headache",1,"N","NONE","N",64
"SUBJ-0321","Active",1,"General disorders","Fatigue",1,"N","NONE","N",207
"SUBJ-0321","Active",1,"Investigations","Aspartate aminotransferase increased",1,"N","NONE","Y",282
"SUBJ-0321","Active",1,"Blood and lymphatic system disorders","Thrombocytopenia",4,"Y","DRUG_WITHDRAWN","N",324
"SUBJ-0322","Active",1,"Gastrointestinal disorders","Decreased appetite",1,"N","NONE","N",6
"SUBJ-0322","Active",1,"Gastrointestinal disorders","Nausea",2,"N","NONE","N",9
"SUBJ-0322","Active",1,"General disorders","Fatigue",1,"N","NONE","N",45
"SUBJ-0322","Active",1,"Nervous system disorders","Peripheral neuropathy",2,"N","NONE","N",49
"SUBJ-0322","Active",1,"General disorders","Pyrexia",3,"Y","DOSE_REDUCTION","N",61
"SUBJ-0322","Active",1,"Skin and subcutaneous tissue disorders","Pruritus",3,"Y","NONE","N",82
"SUBJ-0322","Active",1,"Nervous system disorders","Headache",1,"N","DOSE_REDUCTION","N",83
"SUBJ-0322","Active",1,"Blood and lymphatic system disorders","Anaemia",2,"N","NONE","N",96
"SUBJ-0323","Active",1,"Nervous system disorders","Headache",1,"N","NONE","N",37
"SUBJ-0323","Active",1,"Blood and lymphatic system disorders","Neutropenia",3,"N","NONE","N",138
"SUBJ-0323","Active",1,"Skin and subcutaneous tissue disorders","Rash",3,"N","DOSE_REDUCTION","N",215
"SUBJ-0323","Active",1,"Gastrointestinal disorders","Diarrhoea",1,"N","NONE","Y",325
"SUBJ-0323","Active",1,"Respiratory disorders","Cough",1,"N","NONE","N",354
"SUBJ-0324","Active",1,"General disorders","Fatigue",2,"N","NONE","N",14
"SUBJ-0324","Active",1,"Investigations","Aspartate aminotransferase increased",1,"N","NONE","Y",51
"SUBJ-0324","Active",1,"Blood and lymphatic system disorders","Anaemia",2,"N","NONE","N",76
"SUBJ-0324","Active",1,"Gastrointestinal disorders","Diarrhoea",1,"N","DOSE_REDUCTION","N",118
"SUBJ-0324","Active",1,"Skin and subcutaneous tissue disorders","Rash",2,"N","NONE","N",282
"SUBJ-0324","Active",1,"Investigations","Alanine aminotransferase increased",2,"N","NONE","Y",309
"SUBJ-0325","Active",1,"General disorders","Fatigue",3,"Y","DRUG_WITHDRAWN","N",19
"SUBJ-0325","Active",1,"Skin and subcutaneous tissue disorders","Pruritus",1,"N","NONE","Y",30
"SUBJ-0325","Active",1,"Skin and subcutaneous tissue disorders","Rash",2,"N","NONE","Y",118
"SUBJ-0326","Active",1,"Investigations","Aspartate aminotransferase increased",2,"N","NONE","N",33
"SUBJ-0326","Active",1,"Skin and subcutaneous tissue disorders","Pruritus",1,"N","NONE","Y",241
"SUBJ-0326","Active",1,"Investigations","Alanine aminotransferase increased",1,"N","NONE","Y",268
"SUBJ-0326","Active",1,"Gastrointestinal disorders","Nausea",2,"N","DOSE_REDUCTION","N",294
"SUBJ-0326","Active",1,"Nervous system disorders","Headache",2,"N","DOSE_REDUCTION","N",331
"SUBJ-0327","Active",1,"Gastrointestinal disorders","Decreased appetite",1,"N","NONE","N",72
"SUBJ-0327","Active",1,"General disorders","Fatigue",1,"N","NONE","N",124
"SUBJ-0327","Active",1,"Gastrointestinal disorders","Diarrhoea",1,"N","NONE","N",172
"SUBJ-0327","Active",1,"Skin and subcutaneous tissue disorders","Pruritus",1,"N","DOSE_REDUCTION","N",236
"SUBJ-0327","Active",1,"Investigations","Aspartate aminotransferase increased",1,"N","NONE","Y",384
"SUBJ-0327","Active",1,"Skin and subcutaneous tissue disorders","Rash",2,"N","NONE","Y",404
"SUBJ-0327","Active",1,"Metabolic disorders","Hypothyroidism",1,"N","NONE","Y",498
"SUBJ-0328","Active",1,"General disorders","Pyrexia",1,"N","NONE","N",29
"SUBJ-0328","Active",1,"Gastrointestinal disorders","Diarrhoea",3,"Y","DRUG_WITHDRAWN","Y",44
"SUBJ-0328","Active",1,"Blood and lymphatic system disorders","Neutropenia",3,"Y","NONE","N",50
"SUBJ-0328","Active",1,"Respiratory disorders","Cough",3,"N","NONE","N",88
"SUBJ-0328","Active",1,"General disorders","Fatigue",3,"Y","NONE","N",386
"SUBJ-0328","Active",1,"General disorders","Death",5,"Y","DRUG_WITHDRAWN","N",428
"SUBJ-0329","Active",1,"General disorders","Fatigue",3,"Y","DRUG_WITHDRAWN","N",119
"SUBJ-0329","Active",1,"Gastrointestinal disorders","Nausea",1,"N","NONE","N",157
"SUBJ-0329","Active",1,"Skin and subcutaneous tissue disorders","Rash",1,"N","NONE","N",235
"SUBJ-0329","Active",1,"Blood and lymphatic system disorders","Anaemia",2,"N","NONE","N",252
"SUBJ-0330","Active",1,"Blood and lymphatic system disorders","Anaemia",2,"N","NONE","N",41
"SUBJ-0330","Active",1,"Gastrointestinal disorders","Decreased appetite",3,"Y","NONE","N",160
"SUBJ-0330","Active",1,"Respiratory disorders","Cough",1,"N","NONE","N",330
"SUBJ-0331","Active",1,"Gastrointestinal disorders","Vomiting",1,"N","NONE","N",17
"SUBJ-0331","Active",1,"General disorders","Fatigue",2,"N","NONE","N",53
"SUBJ-0331","Active",1,"General disorders","Pyrexia",2,"N","NONE","N",67
"SUBJ-0331","Active",1,"Skin and subcutaneous tissue disorders","Rash",1,"N","DOSE_REDUCTION","N",198
"SUBJ-0331","Active",1,"Gastrointestinal disorders","Decreased appetite",2,"N","NONE","N",249
"SUBJ-0331","Active",1,"Investigations","Alanine aminotransferase increased",1,"N","NONE","Y",279
"SUBJ-0331","Active",1,"Blood and lymphatic system disorders","Neutropenia",2,"N","NONE","N",424
"SUBJ-0331","Active",1,"General disorders","Death",5,"Y","DRUG_WITHDRAWN","N",492
"SUBJ-0332","Active",1,"Investigations","Alanine aminotransferase increased",1,"N","NONE","N",49
"SUBJ-0332","Active",1,"Hepatobiliary disorders","Drug-induced liver injury",3,"Y","DOSE_REDUCTION","N",66
"SUBJ-0332","Active",1,"Cardiac disorders","Atrial fibrillation",2,"N","NONE","N",99
"SUBJ-0332","Active",1,"Skin and subcutaneous tissue disorders","Rash",1,"N","NONE","Y",238
"SUBJ-0332","Active",1,"Nervous system disorders","Headache",2,"N","NONE","N",302
"SUBJ-0332","Active",1,"Blood and lymphatic system disorders","Thrombocytopenia",2,"N","NONE","N",305
"SUBJ-0332","Active",1,"Respiratory disorders","Cough",2,"N","NONE","N",316
"SUBJ-0332","Active",1,"General disorders","Fatigue",3,"N","DOSE_REDUCTION","N",370
"SUBJ-0333","Active",1,"Skin and subcutaneous tissue disorders","Rash",1,"N","NONE","Y",3
"SUBJ-0333","Active",1,"Gastrointestinal disorders","Nausea",3,"Y","NONE","N",43
"SUBJ-0333","Active",1,"Blood and lymphatic system disorders","Neutropenia",4,"Y","DRUG_WITHDRAWN","N",76
"SUBJ-0333","Active",1,"Gastrointestinal disorders","Decreased appetite",3,"N","NONE","N",152
"SUBJ-0333","Active",1,"Blood and lymphatic system disorders","Thrombocytopenia",3,"Y","DRUG_WITHDRAWN","N",213
"SUBJ-0333","Active",1,"Investigations","Alanine aminotransferase increased",1,"N","NONE","Y",224
"SUBJ-0333","Active",1,"Cardiac disorders","QT prolongation",2,"N","NONE","N",283
"SUBJ-0333","Active",1,"General disorders","Death",5,"Y","DRUG_WITHDRAWN","N",356
"SUBJ-0334","Active",1,"Respiratory disorders","Cough",1,"N","NONE","N",56
"SUBJ-0334","Active",1,"Blood and lymphatic system disorders","Anaemia",3,"N","DOSE_REDUCTION","N",79
"SUBJ-0334","Active",1,"General disorders","Fatigue",2,"N","DOSE_REDUCTION","N",166
"SUBJ-0334","Active",1,"Investigations","Aspartate aminotransferase increased",2,"N","DOSE_REDUCTION","Y",182
"SUBJ-0334","Active",1,"Skin and subcutaneous tissue disorders","Rash",1,"N","NONE","Y",189
"SUBJ-0334","Active",1,"Gastrointestinal disorders","Decreased appetite",1,"N","NONE","N",224
"SUBJ-0334","Active",1,"Metabolic disorders","Hypothyroidism",2,"N","DOSE_REDUCTION","Y",231
"SUBJ-0334","Active",1,"Nervous system disorders","Peripheral neuropathy",1,"N","NONE","N",326
"SUBJ-0334","Active",1,"Gastrointestinal disorders","Nausea",1,"N","NONE","N",360
"SUBJ-0334","Active",1,"Gastrointestinal disorders","Vomiting",1,"N","DOSE_REDUCTION","N",373
"SUBJ-0335","Active",1,"Skin and subcutaneous tissue disorders","Pruritus",2,"N","NONE","Y",54
"SUBJ-0335","Active",1,"Blood and lymphatic system disorders","Thrombocytopenia",2,"N","NONE","N",119
"SUBJ-0335","Active",1,"Investigations","Aspartate aminotransferase increased",1,"N","NONE","Y",154
"SUBJ-0335","Active",1,"Hepatobiliary disorders","Drug-induced liver injury",4,"Y","DOSE_REDUCTION","N",199
"SUBJ-0335","Active",1,"Gastrointestinal disorders","Vomiting",1,"N","DOSE_REDUCTION","N",304
"SUBJ-0335","Active",1,"Gastrointestinal disorders","Nausea",1,"N","NONE","N",320
"SUBJ-0336","Active",1,"Investigations","Alanine aminotransferase increased",1,"N","NONE","Y",8
"SUBJ-0336","Active",1,"Blood and lymphatic system disorders","Anaemia",2,"N","DOSE_REDUCTION","N",92
"SUBJ-0336","Active",1,"Respiratory disorders","Cough",3,"N","DOSE_REDUCTION","N",96
"SUBJ-0336","Active",1,"Skin and subcutaneous tissue disorders","Pruritus",2,"N","NONE","Y",228
"SUBJ-0337","Active",1,"Blood and lymphatic system disorders","Anaemia",3,"N","NONE","N",75
"SUBJ-0337","Active",1,"Investigations","Alanine aminotransferase increased",1,"N","NONE","Y",84
"SUBJ-0337","Active",1,"Skin and subcutaneous tissue disorders","Rash",1,"N","NONE","N",252
"SUBJ-0337","Active",1,"Respiratory disorders","Cough",1,"N","DOSE_REDUCTION","N",255
"SUBJ-0338","Active",1,"Investigations","Aspartate aminotransferase increased",1,"N","NONE","Y",74
"SUBJ-0338","Active",1,"Gastrointestinal disorders","Vomiting",1,"N","NONE","N",128
"SUBJ-0338","Active",1,"Gastrointestinal disorders","Diarrhoea",2,"N","NONE","Y",130
"SUBJ-0338","Active",1,"Cardiac disorders","Atrial fibrillation",2,"N","NONE","N",211
"SUBJ-0338","Active",1,"General disorders","Fatigue",1,"N","DOSE_REDUCTION","N",223
"SUBJ-0338","Active",1,"Gastrointestinal disorders","Decreased appetite",1,"N","NONE","N",269
"SUBJ-0339","Active",1,"General disorders","Fatigue",2,"N","NONE","N",8
"SUBJ-0339","Active",1,"Blood and lymphatic system disorders","Anaemia",3,"N","DOSE_REDUCTION","N",62
"SUBJ-0339","Active",1,"Blood and lymphatic system disorders","Neutropenia",4,"Y","DOSE_REDUCTION","N",102
"SUBJ-0339","Active",1,"Investigations","Blood bilirubin increased",1,"N","NONE","N",108
"SUBJ-0339","Active",1,"Gastrointestinal disorders","Nausea",2,"N","NONE","N",169
"SUBJ-0339","Active",1,"Gastrointestinal disorders","Decreased appetite",3,"Y","NONE","N",223
"SUBJ-0339","Active",1,"Blood and lymphatic system disorders","Thrombocytopenia",2,"N","DOSE_REDUCTION","N",274
"SUBJ-0340","Active",1,"Gastrointestinal disorders","Nausea",1,"N","NONE","N",87
"SUBJ-0340","Active",1,"Investigations","Aspartate aminotransferase increased",2,"N","NONE","Y",93
"SUBJ-0340","Active",1,"Blood and lymphatic system disorders","Neutropenia",2,"N","NONE","N",127
"SUBJ-0340","Active",1,"Blood and lymphatic system disorders","Thrombocytopenia",2,"N","NONE","N",188
"SUBJ-0340","Active",1,"Gastrointestinal disorders","Diarrhoea",1,"N","NONE","N",249
"SUBJ-0340","Active",1,"Nervous system disorders","Peripheral neuropathy",1,"N","DOSE_REDUCTION","N",311
"SUBJ-0341","Active",1,"General disorders","Fatigue",2,"N","DOSE_REDUCTION","N",104
"SUBJ-0341","Active",1,"Nervous system disorders","Peripheral neuropathy",1,"N","NONE","N",311
"SUBJ-0341","Active",1,"Skin and subcutaneous tissue disorders","Rash",3,"Y","NONE","Y",317
"SUBJ-0341","Active",1,"Skin and subcutaneous tissue disorders","Pruritus",2,"N","NONE","Y",382
"SUBJ-0342","Active",1,"General disorders","Pyrexia",2,"N","DOSE_REDUCTION","N",22
"SUBJ-0342","Active",1,"Metabolic disorders","Hypothyroidism",2,"N","NONE","Y",55
"SUBJ-0342","Active",1,"Blood and lymphatic system disorders","Neutropenia",3,"N","DOSE_REDUCTION","N",76
"SUBJ-0342","Active",1,"General disorders","Fatigue",1,"N","NONE","N",78
"SUBJ-0342","Active",1,"Gastrointestinal disorders","Nausea",1,"N","NONE","N",90
"SUBJ-0342","Active",1,"Blood and lymphatic system disorders","Anaemia",2,"N","NONE","N",208
"SUBJ-0343","Active",1,"General disorders","Pyrexia",2,"N","NONE","N",9
"SUBJ-0343","Active",1,"Skin and subcutaneous tissue disorders","Pruritus",2,"N","DOSE_REDUCTION","Y",155
"SUBJ-0343","Active",1,"Gastrointestinal disorders","Nausea",3,"Y","DOSE_REDUCTION","N",197
"SUBJ-0343","Active",1,"Gastrointestinal disorders","Vomiting",2,"N","NONE","N",256
"SUBJ-0343","Active",1,"Gastrointestinal disorders","Diarrhoea",1,"N","NONE","Y",262
"SUBJ-0344","Active",1,"Cardiac disorders","Atrial fibrillation",2,"N","NONE","N",51
"SUBJ-0344","Active",1,"Investigations","Blood bilirubin increased",1,"N","NONE","N",80
"SUBJ-0344","Active",1,"Blood and lymphatic system disorders","Anaemia",2,"N","DOSE_REDUCTION","N",105
"SUBJ-0344","Active",1,"Gastrointestinal disorders","Nausea",1,"N","NONE","N",130
"SUBJ-0344","Active",1,"General disorders","Pyrexia",1,"N","NONE","N",189
"SUBJ-0344","Active",1,"Gastrointestinal disorders","Vomiting",2,"N","NONE","N",240
"SUBJ-0344","Active",1,"Investigations","Aspartate aminotransferase increased",1,"N","NONE","Y",256
"SUBJ-0344","Active",1,"Nervous system disorders","Headache",1,"N","DOSE_REDUCTION","N",286
"SUBJ-0345","Active",1,"Gastrointestinal disorders","Nausea",3,"N","DRUG_WITHDRAWN","N",4
"SUBJ-0345","Active",1,"Skin and subcutaneous tissue disorders","Rash",2,"N","NONE","Y",235
"SUBJ-0345","Active",1,"Blood and lymphatic system disorders","Anaemia",2,"N","NONE","N",294
"SUBJ-0345","Active",1,"Gastrointestinal disorders","Vomiting",1,"N","NONE","N",343
"SUBJ-0345","Active",1,"General disorders","Fatigue",1,"N","NONE","N",407
"SUBJ-0346","Active",1,"Nervous system disorders","Headache",2,"N","NONE","N",14
"SUBJ-0346","Active",1,"Gastrointestinal disorders","Nausea",1,"N","DOSE_REDUCTION","N",54
"SUBJ-0346","Active",1,"Gastrointestinal disorders","Diarrhoea",1,"N","NONE","N",138
"SUBJ-0346","Active",1,"Skin and subcutaneous tissue disorders","Pruritus",1,"N","NONE","Y",259
"SUBJ-0346","Active",1,"Investigations","Alanine aminotransferase increased",3,"N","DOSE_REDUCTION","Y",379
"SUBJ-0346","Active",1,"General disorders","Fatigue",1,"N","NONE","N",387
"SUBJ-0346","Active",1,"Gastrointestinal disorders","Vomiting",2,"N","NONE","N",428
"SUBJ-0347","Active",1,"Gastrointestinal disorders","Diarrhoea",2,"N","NONE","Y",4
"SUBJ-0347","Active",1,"Skin and subcutaneous tissue disorders","Pruritus",2,"N","NONE","Y",71
"SUBJ-0347","Active",1,"Nervous system disorders","Headache",1,"N","NONE","N",134
"SUBJ-0347","Active",1,"Gastrointestinal disorders","Nausea",1,"N","NONE","N",175
"SUBJ-0347","Active",1,"Cardiac disorders","Atrial fibrillation",2,"N","DOSE_REDUCTION","N",367
"SUBJ-0347","Active",1,"Hepatobiliary disorders","Drug-induced liver injury",3,"N","NONE","N",440
"SUBJ-0347","Active",1,"General disorders","Death",5,"Y","DRUG_WITHDRAWN","N",529
"SUBJ-0348","Active",1,"Gastrointestinal disorders","Nausea",1,"N","NONE","N",48
"SUBJ-0348","Active",1,"Skin and subcutaneous tissue disorders","Rash",2,"N","NONE","N",116
"SUBJ-0348","Active",1,"General disorders","Fatigue",1,"N","NONE","N",164
"SUBJ-0349","Active",1,"Skin and subcutaneous tissue disorders","Rash",1,"N","NONE","N",27
"SUBJ-0349","Active",1,"Gastrointestinal disorders","Diarrhoea",1,"N","NONE","Y",213
"SUBJ-0349","Active",1,"General disorders","Death",5,"Y","DRUG_WITHDRAWN","N",433
"SUBJ-0350","Active",1,"Respiratory disorders","Cough",2,"N","NONE","N",27
"SUBJ-0350","Active",1,"Investigations","Aspartate aminotransferase increased",1,"N","NONE","Y",130
"SUBJ-0350","Active",1,"Gastrointestinal disorders","Diarrhoea",1,"N","NONE","N",314
"SUBJ-0350","Active",1,"General disorders","Fatigue",2,"N","NONE","N",367
"SUBJ-0351","Active",1,"Gastrointestinal disorders","Diarrhoea",1,"N","NONE","N",110
"SUBJ-0351","Active",1,"General disorders","Pyrexia",3,"Y","NONE","N",120
"SUBJ-0351","Active",1,"Gastrointestinal disorders","Decreased appetite",2,"N","NONE","N",134
"SUBJ-0352","Active",1,"Gastrointestinal disorders","Diarrhoea",1,"N","NONE","Y",28
"SUBJ-0352","Active",1,"Skin and subcutaneous tissue disorders","Pruritus",1,"N","NONE","Y",118
"SUBJ-0352","Active",1,"Investigations","Alanine aminotransferase increased",1,"N","NONE","Y",183
"SUBJ-0352","Active",1,"Gastrointestinal disorders","Decreased appetite",3,"N","DOSE_REDUCTION","N",304
"SUBJ-0352","Active",1,"Respiratory disorders","Cough",1,"N","NONE","N",318
"SUBJ-0353","Active",1,"Gastrointestinal disorders","Vomiting",3,"Y","DOSE_REDUCTION","N",26
"SUBJ-0353","Active",1,"General disorders","Pyrexia",1,"N","NONE","N",74
"SUBJ-0353","Active",1,"Gastrointestinal disorders","Decreased appetite",3,"N","DRUG_WITHDRAWN","N",138
"SUBJ-0353","Active",1,"Gastrointestinal disorders","Nausea",3,"Y","NONE","N",147
"SUBJ-0354","Active",1,"Gastrointestinal disorders","Vomiting",2,"N","DOSE_REDUCTION","N",3
"SUBJ-0354","Active",1,"Respiratory disorders","Cough",2,"N","DOSE_REDUCTION","N",13
"SUBJ-0354","Active",1,"Blood and lymphatic system disorders","Thrombocytopenia",3,"Y","NONE","N",132
"SUBJ-0354","Active",1,"Gastrointestinal disorders","Nausea",1,"N","NONE","N",153
"SUBJ-0354","Active",1,"General disorders","Fatigue",1,"N","NONE","N",163
"SUBJ-0354","Active",1,"Blood and lymphatic system disorders","Neutropenia",2,"N","NONE","N",256
"SUBJ-0354","Active",1,"Skin and subcutaneous tissue disorders","Rash",2,"N","NONE","N",315
"SUBJ-0355","Active",1,"Investigations","Aspartate aminotransferase increased",1,"N","NONE","Y",53
"SUBJ-0355","Active",1,"Gastrointestinal disorders","Nausea",1,"N","NONE","N",228
"SUBJ-0355","Active",1,"Skin and subcutaneous tissue disorders","Rash",3,"Y","NONE","Y",337
"SUBJ-0356","Active",1,"Gastrointestinal disorders","Nausea",2,"N","NONE","N",80
"SUBJ-0356","Active",1,"Skin and subcutaneous tissue disorders","Rash",2,"N","DOSE_REDUCTION","N",107
"SUBJ-0356","Active",1,"Blood and lymphatic system disorders","Neutropenia",4,"Y","DOSE_REDUCTION","N",130
"SUBJ-0356","Active",1,"Investigations","Aspartate aminotransferase increased",1,"N","NONE","Y",208
"SUBJ-0357","Active",1,"Skin and subcutaneous tissue disorders","Rash",1,"N","NONE","Y",160
"SUBJ-0358","Active",1,"Investigations","Alanine aminotransferase increased",1,"N","NONE","N",8
"SUBJ-0358","Active",1,"Metabolic disorders","Hypothyroidism",2,"N","NONE","N",53
"SUBJ-0358","Active",1,"Nervous system disorders","Headache",1,"N","NONE","N",218
"SUBJ-0358","Active",1,"Skin and subcutaneous tissue disorders","Rash",2,"N","DOSE_REDUCTION","Y",332
"SUBJ-0358","Active",1,"Nervous system disorders","Peripheral neuropathy",1,"N","NONE","N",338
"SUBJ-0358","Active",1,"General disorders","Fatigue",1,"N","NONE","N",461
"SUBJ-0359","Active",1,"Skin and subcutaneous tissue disorders","Rash",3,"N","DOSE_REDUCTION","Y",49
"SUBJ-0359","Active",1,"Gastrointestinal disorders","Diarrhoea",2,"N","DOSE_REDUCTION","Y",68
"SUBJ-0359","Active",1,"Cardiac disorders","Atrial fibrillation",2,"N","NONE","N",112
"SUBJ-0359","Active",1,"Skin and subcutaneous tissue disorders","Pruritus",1,"N","NONE","Y",117
"SUBJ-0359","Active",1,"General disorders","Fatigue",1,"N","NONE","N",126
"SUBJ-0359","Active",1,"Cardiac disorders","QT prolongation",2,"N","NONE","N",158
"SUBJ-0360","Active",1,"Blood and lymphatic system disorders","Neutropenia",2,"N","NONE","N",66
"SUBJ-0360","Active",1,"Nervous system disorders","Peripheral neuropathy",1,"N","NONE","N",75
"SUBJ-0360","Active",1,"Gastrointestinal disorders","Nausea",1,"N","NONE","N",96
"SUBJ-0360","Active",1,"Investigations","Blood bilirubin increased",1,"N","NONE","N",156
"SUBJ-0360","Active",1,"Investigations","Alanine aminotransferase increased",2,"N","NONE","Y",178
"SUBJ-0360","Active",1,"Gastrointestinal disorders","Diarrhoea",1,"N","DOSE_REDUCTION","Y",182
"SUBJ-0360","Active",1,"General disorders","Fatigue",1,"N","NONE","N",204
"SUBJ-0361","Active",1,"Nervous system disorders","Peripheral neuropathy",2,"N","DOSE_REDUCTION","N",111
"SUBJ-0361","Active",1,"Gastrointestinal disorders","Nausea",2,"N","NONE","N",166
"SUBJ-0361","Active",1,"Cardiac disorders","QT prolongation",3,"Y","DOSE_REDUCTION","N",178
"SUBJ-0361","Active",1,"Respiratory disorders","Cough",1,"N","NONE","N",202
"SUBJ-0361","Active",1,"General disorders","Pyrexia",3,"Y","NONE","N",237
"SUBJ-0362","Active",1,"General disorders","Fatigue",2,"N","NONE","N",50
"SUBJ-0362","Active",1,"Blood and lymphatic system disorders","Anaemia",2,"N","NONE","N",102
"SUBJ-0362","Active",1,"Investigations","Aspartate aminotransferase increased",1,"N","NONE","Y",128
"SUBJ-0362","Active",1,"Skin and subcutaneous tissue disorders","Rash",3,"Y","NONE","Y",155
"SUBJ-0363","Active",1,"Gastrointestinal disorders","Diarrhoea",2,"N","NONE","Y",41
"SUBJ-0363","Active",1,"General disorders","Fatigue",1,"N","NONE","N",126
"SUBJ-0363","Active",1,"Skin and subcutaneous tissue disorders","Pruritus",3,"Y","DOSE_REDUCTION","Y",130
"SUBJ-0363","Active",1,"Gastrointestinal disorders","Nausea",2,"N","NONE","N",286
"SUBJ-0363","Active",1,"Blood and lymphatic system disorders","Neutropenia",2,"N","NONE","N",308
"SUBJ-0364","Active",1,"Metabolic disorders","Hypothyroidism",2,"N","NONE","N",146
"SUBJ-0364","Active",1,"Gastrointestinal disorders","Decreased appetite",3,"Y","DOSE_REDUCTION","N",155
"SUBJ-0364","Active",1,"Skin and subcutaneous tissue disorders","Pruritus",1,"N","NONE","Y",210
"SUBJ-0364","Active",1,"Nervous system disorders","Headache",1,"N","NONE","N",271
"SUBJ-0364","Active",1,"Renal and urinary disorders","Acute kidney injury",4,"Y","DRUG_WITHDRAWN","N",331
"SUBJ-0365","Active",1,"General disorders","Fatigue",1,"N","NONE","N",133
"SUBJ-0365","Active",1,"Investigations","Alanine aminotransferase increased",1,"N","NONE","Y",173
"SUBJ-0365","Active",1,"Blood and lymphatic system disorders","Neutropenia",4,"Y","DRUG_WITHDRAWN","N",188
"SUBJ-0365","Active",1,"Gastrointestinal disorders","Diarrhoea",1,"N","NONE","Y",216
"SUBJ-0365","Active",1,"Gastrointestinal disorders","Nausea",2,"N","NONE","N",236
"SUBJ-0365","Active",1,"Gastrointestinal disorders","Vomiting",1,"N","DOSE_REDUCTION","N",264
"SUBJ-0366","Active",1,"Skin and subcutaneous tissue disorders","Rash",2,"N","NONE","N",49
"SUBJ-0366","Active",1,"Cardiac disorders","QT prolongation",2,"N","NONE","N",106
"SUBJ-0366","Active",1,"Investigations","Blood bilirubin increased",2,"N","NONE","N",181
"SUBJ-0366","Active",1,"Gastrointestinal disorders","Decreased appetite",1,"N","NONE","N",191
"SUBJ-0366","Active",1,"Investigations","Aspartate aminotransferase increased",3,"Y","NONE","Y",192
"SUBJ-0366","Active",1,"Skin and subcutaneous tissue disorders","Pruritus",1,"N","DOSE_REDUCTION","Y",249
"SUBJ-0366","Active",1,"General disorders","Fatigue",2,"N","NONE","N",346
"SUBJ-0366","Active",1,"Gastrointestinal disorders","Vomiting",1,"N","NONE","N",369
"SUBJ-0366","Active",1,"Hepatobiliary disorders","Drug-induced liver injury",3,"Y","NONE","N",392
"SUBJ-0367","Active",1,"Skin and subcutaneous tissue disorders","Pruritus",3,"N","NONE","Y",146
"SUBJ-0367","Active",1,"Skin and subcutaneous tissue disorders","Rash",2,"N","NONE","Y",448
"SUBJ-0368","Active",1,"Gastrointestinal disorders","Nausea",1,"N","DOSE_REDUCTION","N",217
"SUBJ-0369","Active",1,"Blood and lymphatic system disorders","Thrombocytopenia",2,"N","NONE","N",49
"SUBJ-0369","Active",1,"Gastrointestinal disorders","Diarrhoea",2,"N","NONE","Y",60
"SUBJ-0369","Active",1,"Gastrointestinal disorders","Decreased appetite",1,"N","NONE","N",189
"SUBJ-0369","Active",1,"Skin and subcutaneous tissue disorders","Rash",2,"N","NONE","Y",222
"SUBJ-0369","Active",1,"General disorders","Fatigue",1,"N","NONE","N",376
"SUBJ-0370","Active",1,"Gastrointestinal disorders","Decreased appetite",1,"N","NONE","N",57
"SUBJ-0370","Active",1,"General disorders","Pyrexia",2,"N","NONE","N",262
"SUBJ-0370","Active",1,"Gastrointestinal disorders","Nausea",3,"Y","NONE","N",299
"SUBJ-0371","Active",1,"Skin and subcutaneous tissue disorders","Rash",1,"N","NONE","Y",21
"SUBJ-0371","Active",1,"Gastrointestinal disorders","Nausea",1,"N","NONE","N",244
"SUBJ-0371","Active",1,"Respiratory disorders","Cough",1,"N","NONE","N",282
"SUBJ-0371","Active",1,"Gastrointestinal disorders","Diarrhoea",1,"N","NONE","Y",359
"SUBJ-0371","Active",1,"General disorders","Pyrexia",1,"N","NONE","N",439
"SUBJ-0372","Active",1,"Blood and lymphatic system disorders","Thrombocytopenia",2,"N","DOSE_REDUCTION","N",43
"SUBJ-0372","Active",1,"Skin and subcutaneous tissue disorders","Pruritus",2,"N","NONE","Y",87
"SUBJ-0372","Active",1,"General disorders","Pyrexia",2,"N","NONE","N",181
"SUBJ-0372","Active",1,"General disorders","Fatigue",1,"N","NONE","N",239
"SUBJ-0372","Active",1,"Blood and lymphatic system disorders","Neutropenia",3,"Y","NONE","N",243
"SUBJ-0372","Active",1,"Metabolic disorders","Hypothyroidism",1,"N","NONE","Y",278
"SUBJ-0372","Active",1,"Gastrointestinal disorders","Diarrhoea",2,"N","NONE","Y",318
"SUBJ-0373","Active",1,"General disorders","Pyrexia",3,"N","DRUG_WITHDRAWN","N",15
"SUBJ-0373","Active",1,"Investigations","Aspartate aminotransferase increased",2,"N","DOSE_REDUCTION","N",42
"SUBJ-0373","Active",1,"Nervous system disorders","Headache",2,"N","NONE","N",98
"SUBJ-0374","Active",1,"Investigations","Aspartate aminotransferase increased",1,"N","NONE","Y",16
"SUBJ-0374","Active",1,"Skin and subcutaneous tissue disorders","Rash",1,"N","NONE","Y",24
"SUBJ-0374","Active",1,"General disorders","Fatigue",1,"N","DOSE_REDUCTION","N",54
"SUBJ-0374","Active",1,"Metabolic disorders","Hypothyroidism",1,"N","NONE","Y",79
"SUBJ-0375","Active",1,"Respiratory disorders","Cough",1,"N","NONE","N",101
"SUBJ-0375","Active",1,"Skin and subcutaneous tissue disorders","Rash",1,"N","NONE","N",129
"SUBJ-0375","Active",1,"General disorders","Fatigue",3,"N","NONE","N",274
"SUBJ-0375","Active",1,"Blood and lymphatic system disorders","Anaemia",2,"N","NONE","N",359
"SUBJ-0375","Active",1,"Skin and subcutaneous tissue disorders","Pruritus",1,"N","DOSE_REDUCTION","Y",446
"SUBJ-0375","Active",1,"Gastrointestinal disorders","Nausea",1,"N","NONE","N",516
"SUBJ-0375","Active",1,"Investigations","Alanine aminotransferase increased",1,"N","NONE","N",543
"SUBJ-0375","Active",1,"General disorders","Death",5,"Y","DRUG_WITHDRAWN","N",555
"SUBJ-0376","Active",1,"Gastrointestinal disorders","Diarrhoea",2,"N","NONE","Y",26
"SUBJ-0376","Active",1,"Skin and subcutaneous tissue disorders","Rash",2,"N","NONE","Y",113
"SUBJ-0376","Active",1,"General disorders","Fatigue",3,"Y","NONE","N",129
"SUBJ-0376","Active",1,"Gastrointestinal disorders","Nausea",2,"N","NONE","N",183
"SUBJ-0376","Active",1,"Blood and lymphatic system disorders","Neutropenia",2,"N","DOSE_REDUCTION","N",259
"SUBJ-0377","Active",1,"Gastrointestinal disorders","Diarrhoea",1,"N","NONE","N",83
"SUBJ-0377","Active",1,"Blood and lymphatic system disorders","Neutropenia",2,"N","NONE","N",128
"SUBJ-0377","Active",1,"Gastrointestinal disorders","Vomiting",1,"N","DOSE_REDUCTION","N",172
"SUBJ-0377","Active",1,"Skin and subcutaneous tissue disorders","Pruritus",1,"N","NONE","Y",227
"SUBJ-0377","Active",1,"Investigations","Blood bilirubin increased",2,"N","DOSE_REDUCTION","N",357
"SUBJ-0377","Active",1,"Gastrointestinal disorders","Nausea",1,"N","NONE","N",379
"SUBJ-0378","Active",1,"General disorders","Fatigue",2,"N","NONE","N",33
"SUBJ-0378","Active",1,"Skin and subcutaneous tissue disorders","Pruritus",3,"Y","NONE","Y",43
"SUBJ-0378","Active",1,"General disorders","Pyrexia",2,"N","NONE","N",43
"SUBJ-0378","Active",1,"Gastrointestinal disorders","Diarrhoea",1,"N","NONE","Y",73
"SUBJ-0379","Active",1,"General disorders","Fatigue",2,"N","NONE","N",110
"SUBJ-0379","Active",1,"Nervous system disorders","Peripheral neuropathy",1,"N","NONE","N",227
"SUBJ-0379","Active",1,"Gastrointestinal disorders","Diarrhoea",3,"N","NONE","Y",240
"SUBJ-0379","Active",1,"Cardiac disorders","QT prolongation",3,"Y","NONE","N",249
"SUBJ-0379","Active",1,"Skin and subcutaneous tissue disorders","Rash",2,"N","NONE","Y",341
"SUBJ-0379","Active",1,"Gastrointestinal disorders","Decreased appetite",3,"N","DOSE_REDUCTION","N",363
"SUBJ-0379","Active",1,"Cardiac disorders","Atrial fibrillation",3,"Y","NONE","N",427
"SUBJ-0380","Active",1,"General disorders","Fatigue",2,"N","NONE","N",4
"SUBJ-0380","Active",1,"Skin and subcutaneous tissue disorders","Pruritus",3,"Y","DRUG_WITHDRAWN","N",37
"SUBJ-0380","Active",1,"Gastrointestinal disorders","Decreased appetite",1,"N","NONE","N",39
"SUBJ-0380","Active",1,"Blood and lymphatic system disorders","Neutropenia",2,"N","NONE","N",47
"SUBJ-0380","Active",1,"Gastrointestinal disorders","Nausea",2,"N","NONE","N",50
"SUBJ-0380","Active",1,"Gastrointestinal disorders","Diarrhoea",3,"Y","DOSE_REDUCTION","Y",56
"SUBJ-0380","Active",1,"Nervous system disorders","Headache",2,"N","NONE","N",59
"SUBJ-0380","Active",1,"General disorders","Pyrexia",2,"N","NONE","N",62
"SUBJ-0381","Active",1,"Renal and urinary disorders","Acute kidney injury",2,"N","NONE","N",108
"SUBJ-0381","Active",1,"Blood and lymphatic system disorders","Anaemia",2,"N","NONE","N",182
"SUBJ-0381","Active",1,"Skin and subcutaneous tissue disorders","Rash",1,"N","NONE","N",421
"SUBJ-0381","Active",1,"Gastrointestinal disorders","Nausea",1,"N","NONE","N",447
"SUBJ-0381","Active",1,"Metabolic disorders","Hypothyroidism",2,"N","NONE","N",466
"SUBJ-0381","Active",1,"Skin and subcutaneous tissue disorders","Pruritus",3,"N","DRUG_WITHDRAWN","N",562
"SUBJ-0381","Active",1,"General disorders","Fatigue",1,"N","NONE","N",563
"SUBJ-0381","Active",1,"Investigations","Aspartate aminotransferase increased",3,"N","DOSE_REDUCTION","Y",607
"SUBJ-0381","Active",1,"General disorders","Pyrexia",2,"N","NONE","N",633
"SUBJ-0382","Active",1,"Skin and subcutaneous tissue disorders","Rash",1,"N","NONE","Y",111
"SUBJ-0382","Active",1,"General disorders","Fatigue",2,"N","NONE","N",116
"SUBJ-0382","Active",1,"Gastrointestinal disorders","Nausea",1,"N","NONE","N",118
"SUBJ-0383","Active",1,"Gastrointestinal disorders","Decreased appetite",2,"N","NONE","N",159
"SUBJ-0383","Active",1,"General disorders","Fatigue",1,"N","NONE","N",186
"SUBJ-0383","Active",1,"Blood and lymphatic system disorders","Thrombocytopenia",2,"N","DOSE_REDUCTION","N",304
"SUBJ-0383","Active",1,"Skin and subcutaneous tissue disorders","Pruritus",1,"N","NONE","Y",364
"SUBJ-0384","Active",1,"General disorders","Pyrexia",3,"Y","NONE","N",58
"SUBJ-0384","Active",1,"Gastrointestinal disorders","Nausea",2,"N","NONE","N",329
"SUBJ-0384","Active",1,"Cardiac disorders","QT prolongation",2,"N","NONE","N",426
"SUBJ-0384","Active",1,"Blood and lymphatic system disorders","Neutropenia",2,"N","NONE","N",478
"SUBJ-0384","Active",1,"Gastrointestinal disorders","Decreased appetite",2,"N","NONE","N",516
"SUBJ-0385","Active",1,"Skin and subcutaneous tissue disorders","Rash",2,"N","DOSE_REDUCTION","Y",15
"SUBJ-0385","Active",1,"Blood and lymphatic system disorders","Neutropenia",3,"Y","NONE","N",53
"SUBJ-0385","Active",1,"General disorders","Fatigue",1,"N","NONE","N",113
"SUBJ-0385","Active",1,"Gastrointestinal disorders","Nausea",3,"N","DRUG_WITHDRAWN","N",377
"SUBJ-0386","Active",1,"Nervous system disorders","Headache",1,"N","NONE","N",17
"SUBJ-0386","Active",1,"Gastrointestinal disorders","Diarrhoea",1,"N","NONE","Y",292
"SUBJ-0386","Active",1,"Gastrointestinal disorders","Nausea",1,"N","NONE","N",321
"SUBJ-0386","Active",1,"General disorders","Fatigue",3,"N","NONE","N",328
"SUBJ-0386","Active",1,"Blood and lymphatic system disorders","Anaemia",3,"Y","NONE","N",332
"SUBJ-0386","Active",1,"Gastrointestinal disorders","Vomiting",3,"Y","NONE","N",347
"SUBJ-0387","Active",1,"General disorders","Pyrexia",1,"N","NONE","N",10
"SUBJ-0387","Active",1,"Investigations","Alanine aminotransferase increased",1,"N","NONE","Y",59
"SUBJ-0387","Active",1,"Respiratory disorders","Cough",2,"N","NONE","N",220
"SUBJ-0387","Active",1,"Skin and subcutaneous tissue disorders","Pruritus",2,"N","NONE","Y",292
"SUBJ-0387","Active",1,"Gastrointestinal disorders","Diarrhoea",3,"N","DOSE_REDUCTION","Y",309
"SUBJ-0387","Active",1,"Nervous system disorders","Peripheral neuropathy",3,"Y","DOSE_REDUCTION","N",323
"SUBJ-0387","Active",1,"Gastrointestinal disorders","Vomiting",1,"N","NONE","N",324
"SUBJ-0387","Active",1,"Blood and lymphatic system disorders","Thrombocytopenia",2,"N","NONE","N",351
"SUBJ-0388","Active",1,"Blood and lymphatic system disorders","Thrombocytopenia",3,"N","NONE","N",55
"SUBJ-0388","Active",1,"Skin and subcutaneous tissue disorders","Rash",3,"Y","DOSE_REDUCTION","N",119
"SUBJ-0388","Active",1,"Gastrointestinal disorders","Vomiting",1,"N","NONE","N",197
"SUBJ-0388","Active",1,"Blood and lymphatic system disorders","Anaemia",2,"N","NONE","N",210
"SUBJ-0388","Active",1,"Gastrointestinal disorders","Nausea",2,"N","NONE","N",220
"SUBJ-0388","Active",1,"Gastrointestinal disorders","Diarrhoea",1,"N","NONE","N",267
"SUBJ-0389","Active",1,"General disorders","Fatigue",1,"N","NONE","N",95
"SUBJ-0389","Active",1,"Gastrointestinal disorders","Vomiting",1,"N","NONE","N",251
"SUBJ-0389","Active",1,"Skin and subcutaneous tissue disorders","Rash",3,"Y","DOSE_REDUCTION","Y",296
"SUBJ-0389","Active",1,"General disorders","Pyrexia",1,"N","NONE","N",301
"SUBJ-0389","Active",1,"Gastrointestinal disorders","Decreased appetite",1,"N","NONE","N",326
"SUBJ-0389","Active",1,"Nervous system disorders","Peripheral neuropathy",1,"N","NONE","N",409
"SUBJ-0389","Active",1,"Gastrointestinal disorders","Diarrhoea",3,"Y","DOSE_REDUCTION","Y",417
"SUBJ-0389","Active",1,"Skin and subcutaneous tissue disorders","Pruritus",1,"N","NONE","Y",466
"SUBJ-0389","Active",1,"Gastrointestinal disorders","Nausea",1,"N","NONE","N",535
"SUBJ-0390","Active",1,"Investigations","Alanine aminotransferase increased",1,"N","NONE","Y",78
"SUBJ-0390","Active",1,"Blood and lymphatic system disorders","Neutropenia",2,"N","NONE","N",98
"SUBJ-0390","Active",1,"Gastrointestinal disorders","Nausea",3,"Y","DOSE_REDUCTION","N",128
"SUBJ-0390","Active",1,"Blood and lymphatic system disorders","Anaemia",2,"N","NONE","N",149
"SUBJ-0390","Active",1,"Skin and subcutaneous tissue disorders","Rash",2,"N","NONE","Y",164
"SUBJ-0391","Active",1,"Blood and lymphatic system disorders","Neutropenia",2,"N","NONE","N",63
"SUBJ-0391","Active",1,"Gastrointestinal disorders","Diarrhoea",1,"N","NONE","Y",142
"SUBJ-0391","Active",1,"Blood and lymphatic system disorders","Thrombocytopenia",3,"Y","NONE","N",156
"SUBJ-0391","Active",1,"Gastrointestinal disorders","Vomiting",1,"N","DOSE_REDUCTION","N",212
"SUBJ-0391","Active",1,"Gastrointestinal disorders","Nausea",1,"N","DOSE_REDUCTION","N",238
"SUBJ-0391","Active",1,"Skin and subcutaneous tissue disorders","Rash",1,"N","NONE","Y",297
"SUBJ-0391","Active",1,"Cardiac disorders","Atrial fibrillation",2,"N","NONE","N",298
"SUBJ-0392","Active",1,"Blood and lymphatic system disorders","Anaemia",2,"N","DOSE_REDUCTION","N",12
"SUBJ-0392","Active",1,"Nervous system disorders","Peripheral neuropathy",1,"N","NONE","N",135
"SUBJ-0392","Active",1,"Gastrointestinal disorders","Decreased appetite",1,"N","NONE","N",139
"SUBJ-0392","Active",1,"Gastrointestinal disorders","Nausea",1,"N","NONE","N",220
"SUBJ-0392","Active",1,"General disorders","Death",5,"Y","DRUG_WITHDRAWN","N",398
"SUBJ-0393","Active",1,"Gastrointestinal disorders","Nausea",2,"N","DOSE_REDUCTION","N",40
"SUBJ-0393","Active",1,"Nervous system disorders","Headache",1,"N","NONE","N",140
"SUBJ-0393","Active",1,"General disorders","Fatigue",2,"N","NONE","N",238
"SUBJ-0394","Active",1,"General disorders","Fatigue",2,"N","NONE","N",6
"SUBJ-0394","Active",1,"General disorders","Pyrexia",1,"N","NONE","N",54
"SUBJ-0394","Active",1,"Skin and subcutaneous tissue disorders","Rash",1,"N","NONE","Y",145
"SUBJ-0394","Active",1,"Nervous system disorders","Headache",2,"N","NONE","N",223
"SUBJ-0394","Active",1,"Blood and lymphatic system disorders","Neutropenia",2,"N","DOSE_REDUCTION","N",238
"SUBJ-0394","Active",1,"Gastrointestinal disorders","Diarrhoea",2,"N","NONE","Y",304
"SUBJ-0395","Active",1,"General disorders","Fatigue",2,"N","NONE","N",25
"SUBJ-0395","Active",1,"Blood and lymphatic system disorders","Anaemia",4,"Y","DOSE_REDUCTION","N",45
"SUBJ-0395","Active",1,"General disorders","Death",5,"Y","DRUG_WITHDRAWN","N",87
"SUBJ-0396","Active",1,"Investigations","Aspartate aminotransferase increased",1,"N","DOSE_REDUCTION","Y",3
"SUBJ-0396","Active",1,"Hepatobiliary disorders","Drug-induced liver injury",4,"Y","DOSE_REDUCTION","N",13
"SUBJ-0396","Active",1,"Skin and subcutaneous tissue disorders","Rash",1,"N","NONE","Y",79
"SUBJ-0396","Active",1,"Respiratory disorders","Cough",1,"N","NONE","N",90
"SUBJ-0396","Active",1,"Nervous system disorders","Headache",2,"N","DOSE_REDUCTION","N",169
"SUBJ-0396","Active",1,"Investigations","Blood bilirubin increased",3,"Y","DOSE_REDUCTION","N",191
"SUBJ-0396","Active",1,"Gastrointestinal disorders","Nausea",2,"N","NONE","N",290
"SUBJ-0396","Active",1,"Blood and lymphatic system disorders","Neutropenia",2,"N","NONE","N",410
"SUBJ-0396","Active",1,"Gastrointestinal disorders","Vomiting",3,"Y","NONE","N",455
"SUBJ-0397","Active",1,"Respiratory disorders","Cough",1,"N","NONE","N",128
"SUBJ-0397","Active",1,"General disorders","Fatigue",2,"N","DOSE_REDUCTION","N",140
"SUBJ-0397","Active",1,"Renal and urinary disorders","Acute kidney injury",3,"N","NONE","N",144
"SUBJ-0397","Active",1,"Investigations","Alanine aminotransferase increased",2,"N","NONE","N",329
"SUBJ-0397","Active",1,"Gastrointestinal disorders","Diarrhoea",1,"N","DOSE_REDUCTION","Y",390
"SUBJ-0397","Active",1,"Gastrointestinal disorders","Nausea",1,"N","DOSE_REDUCTION","N",440
"SUBJ-0397","Active",1,"Cardiac disorders","QT prolongation",2,"N","DOSE_REDUCTION","N",441
"SUBJ-0397","Active",1,"Skin and subcutaneous tissue disorders","Pruritus",1,"N","NONE","N",454
"SUBJ-0397","Active",1,"Nervous system disorders","Peripheral neuropathy",2,"N","NONE","N",456
"SUBJ-0398","Active",1,"Blood and lymphatic system disorders","Anaemia",3,"Y","NONE","N",12
"SUBJ-0398","Active",1,"Skin and subcutaneous tissue disorders","Pruritus",3,"Y","NONE","Y",194
"SUBJ-0398","Active",1,"Gastrointestinal disorders","Nausea",1,"N","NONE","N",434
"SUBJ-0399","Active",1,"Skin and subcutaneous tissue disorders","Rash",1,"N","NONE","Y",1
"SUBJ-0399","Active",1,"General disorders","Fatigue",2,"N","NONE","N",30
"SUBJ-0399","Active",1,"Investigations","Alanine aminotransferase increased",1,"N","DOSE_REDUCTION","Y",70
"SUBJ-0399","Active",1,"Hepatobiliary disorders","Drug-induced liver injury",3,"Y","NONE","N",81
"SUBJ-0399","Active",1,"Nervous system disorders","Peripheral neuropathy",1,"N","NONE","N",85
"SUBJ-0400","Active",1,"General disorders","Fatigue",2,"N","NONE","N",102
"SUBJ-0400","Active",1,"Investigations","Blood bilirubin increased",1,"N","NONE","N",226
"SUBJ-0400","Active",1,"Gastrointestinal disorders","Decreased appetite",2,"N","DOSE_REDUCTION","N",261
"SUBJ-0400","Active",1,"Gastrointestinal disorders","Nausea",2,"N","NONE","N",376
"SUBJ-0400","Active",1,"Nervous system disorders","Peripheral neuropathy",3,"N","DRUG_WITHDRAWN","N",474
"SUBJ-0400","Active",1,"General disorders","Death",5,"Y","DRUG_WITHDRAWN","N",509
