"USUBJID","STUDYID","TRT01P","TRT01PN","SAFFL","ALT_MAX","AST_MAX","BILI_MAX","HB_MAX","CREAT_MAX","ALT_3XULN","AST_3XULN","BILI_2XULN"
"SUBJ-0001","BENCHMARK-010","Placebo",0,"Y",26.4,32.9,0.4,9.5,1.03,0,0,0
"SUBJ-0002","BENCHMARK-010","Placebo",0,"Y",35.6,28.5,0.35,12,0.72,0,0,0
"SUBJ-0003","BENCHMARK-010","Placebo",0,"Y",14.1,29.9,0.78,12,0.83,0,0,0
"SUBJ-0004","BENCHMARK-010","Placebo",0,"Y",42.5,34.8,0.34,11.4,0.7,0,0,0
"SUBJ-0005","BENCHMARK-010","Placebo",0,"Y",45.5,26.6,0.68,13.7,1.11,0,0,0
"SUBJ-0006","BENCHMARK-010","Placebo",0,"Y",12.2,22.4,0.63,14.2,0.61,0,0,0
"SUBJ-0007","BENCHMARK-010","Placebo",0,"Y",13.5,5,0.32,13.4,1.07,0,0,0
"SUBJ-0008","BENCHMARK-010","Placebo",0,"Y",19.9,30,0.27,11.2,0.96,0,0,0
"SUBJ-0009","BENCHMARK-010","Placebo",0,"Y",19.5,17.7,0.82,12.6,1.08,0,0,0
"SUBJ-0010","BENCHMARK-010","Placebo",0,"Y",40.6,26.1,0.8,13.4,0.95,0,0,0
"SUBJ-0011","BENCHMARK-010","Placebo",0,"Y",43.6,18.4,0.6,13.1,1.07,0,0,0
"SUBJ-0012","BENCHMARK-010","Placebo",0,"Y",34.4,10,0.54,10.6,0.87,0,0,0
"SUBJ-0013","BENCHMARK-010","Placebo",0,"Y",8.8,5,0.33,12.1,0.71,0,0,0
"SUBJ-0014","BENCHMARK-010","Placebo",0,"Y",22.6,24.8,0.46,11.4,0.49,0,0,0
"SUBJ-0015","BENCHMARK-010","Placebo",0,"Y",17.9,36.2,0.32,12.6,1.22,0,0,0
"SUBJ-0016","BENCHMARK-010","Placebo",0,"Y",53.5,23.8,1.05,12.5,1.16,0,0,0
"SUBJ-0017","BENCHMARK-010","Placebo",0,"Y",25.5,33.7,0.23,11.1,0.55,0,0,0
"SUBJ-0018","BENCHMARK-010","Placebo",0,"Y",38.6,42.5,0.33,16,1.12,0,0,0
"SUBJ-0019","BENCHMARK-010","Placebo",0,"Y",12.3,16,0.84,14.6,0.79,0,0,0
"SUBJ-0020","BENCHMARK-010","Placebo",0,"Y",42.4,22.4,0.28,14.4,1,0,0,0
"SUBJ-0021","BENCHMARK-010","Placebo",0,"Y",36.1,18.2,0.97,10.3,0.8,0,0,0
"SUBJ-0022","BENCHMARK-010","Placebo",0,"Y",25.4,23.9,0.75,14,1.22,0,0,0
"SUBJ-0023","BENCHMARK-010","Placebo",0,"Y",29.4,15.8,1.06,11.8,1.17,0,0,0
"SUBJ-0024","BENCHMARK-010","Placebo",0,"Y",11.5,14.1,0.68,12.6,1.13,0,0,0
"SUBJ-0025","BENCHMARK-010","Placebo",0,"Y",17,20.6,0.78,8.6,0.81,0,0,0
"SUBJ-0026","BENCHMARK-010","Placebo",0,"Y",22.3,35.1,0.84,12,0.83,0,0,0
"SUBJ-0027","BENCHMARK-010","Placebo",0,"Y",34.6,16.8,0.76,13.3,0.93,0,0,0
"SUBJ-0028","BENCHMARK-010","Placebo",0,"Y",32.2,18.9,0.76,9.4,0.8,0,0,0
"SUBJ-0029","BENCHMARK-010","Placebo",0,"Y",27.9,19.8,0.78,12.5,0.67,0,0,0
"SUBJ-0030","BENCHMARK-010","Placebo",0,"Y",9.9,11,0.57,11.8,0.86,0,0,0
"SUBJ-0031","BENCHMARK-010","Placebo",0,"Y",17.4,16.6,0.63,15.3,0.69,0,0,0
"SUBJ-0032","BENCHMARK-010","Placebo",0,"Y",11.3,15.2,1.12,12.3,0.97,0,0,0
"SUBJ-0033","BENCHMARK-010","Placebo",0,"Y",19.2,11.1,0.79,11.9,0.81,0,0,0
"SUBJ-0034","BENCHMARK-010","Placebo",0,"Y",7.9,25.4,0.87,13,0.84,0,0,0
"SUBJ-0035","BENCHMARK-010","Placebo",0,"Y",10.5,21,0.6,11.1,0.57,0,0,0
"SUBJ-0036","BENCHMARK-010","Placebo",0,"Y",20.6,19.4,0.95,13.1,1.24,0,0,0
"SUBJ-0037","BENCHMARK-010","Placebo",0,"Y",5,38.7,0.87,12.9,0.87,0,0,0
"SUBJ-0038","BENCHMARK-010","Placebo",0,"Y",20.5,19.3,0.65,9.5,0.84,0,0,0
"SUBJ-0039","BENCHMARK-010","Placebo",0,"Y",17.6,18.9,0.77,12.1,1.13,0,0,0
"SUBJ-0040","BENCHMARK-010","Placebo",0,"Y",23,6.9,0.53,11.6,0.7,0,0,0
"SUBJ-0041","BENCHMARK-010","Placebo",0,"Y",5,33.1,0.93,11.8,0.75,0,0,0
"SUBJ-0042","BENCHMARK-010","Placebo",0,"Y",29.1,26.7,0.58,11.5,1.04,0,0,0
"SUBJ-0043","BENCHMARK-010","Placebo",0,"Y",40.6,24.9,0.86,14.5,1.06,0,0,0
"SUBJ-0044","BENCHMARK-010","Placebo",0,"Y",5,29.9,1.09,11.6,0.56,0,0,0
"SUBJ-0045","BENCHMARK-010","Placebo",0,"Y",6.5,29.1,1.19,13.4,0.92,0,0,0
"SUBJ-0046","BENCHMARK-010","Placebo",0,"Y",43.2,16.1,0.48,14.2,0.94,0,0,0
"SUBJ-0047","BENCHMARK-010","Placebo",0,"Y",26.2,39.1,0.54,11.5,0.93,0,0,0
"SUBJ-0048","BENCHMARK-010","Placebo",0,"Y",19,19,0.83,12.2,1.11,0,0,0
"SUBJ-0049","BENCHMARK-010","Placebo",0,"Y",38.2,16.7,0.55,9.4,0.62,0,0,0
"SUBJ-0050","BENCHMARK-010","Placebo",0,"Y",7.5,16.6,0.53,13,0.82,0,0,0
"SUBJ-0051","BENCHMARK-010","Placebo",0,"Y",38,6.2,1.2,11,0.62,0,0,0
"SUBJ-0052","BENCHMARK-010","Placebo",0,"Y",6.4,30.1,1.19,13.8,0.86,0,0,0
"SUBJ-0053","BENCHMARK-010","Placebo",0,"Y",44.8,18.6,0.88,13,0.67,0,0,0
"SUBJ-0054","BENCHMARK-010","Placebo",0,"Y",18.8,29.4,1.05,13.3,0.85,0,0,0
"SUBJ-0055","BENCHMARK-010","Placebo",0,"Y",28.9,7.2,0.54,13.8,0.96,0,0,0
"SUBJ-0056","BENCHMARK-010","Placebo",0,"Y",46.8,19.1,0.71,12.3,1.02,0,0,0
"SUBJ-0057","BENCHMARK-010","Placebo",0,"Y",20.7,26.3,0.93,12.8,0.86,0,0,0
"SUBJ-0058","BENCHMARK-010","Placebo",0,"Y",25.2,15.4,1.01,13.4,0.9,0,0,0
"SUBJ-0059","BENCHMARK-010","Placebo",0,"Y",5,33.9,0.48,12.1,0.89,0,0,0
"SUBJ-0060","BENCHMARK-010","Placebo",0,"Y",21.2,5,0.36,11.7,0.82,0,0,0
"SUBJ-0061","BENCHMARK-010","Placebo",0,"Y",32.1,21.1,1.31,13.8,0.9,0,0,0
"SUBJ-0062","BENCHMARK-010","Placebo",0,"Y",31.2,26.2,1.29,12.5,0.59,0,0,0
"SUBJ-0063","BENCHMARK-010","Placebo",0,"Y",16,12.4,1.07,13.6,0.62,0,0,0
"SUBJ-0064","BENCHMARK-010","Placebo",0,"Y",10.4,16.6,0.93,13.1,0.84,0,0,0
"SUBJ-0065","BENCHMARK-010","Placebo",0,"Y",23.6,13.6,0.35,11.8,0.55,0,0,0
"SUBJ-0066","BENCHMARK-010","Placebo",0,"Y",48,25.6,1.03,12.3,1.02,0,0,0
"SUBJ-0067","BENCHMARK-010","Placebo",0,"Y",29,30.9,0.62,13,0.62,0,0,0
"SUBJ-0068","BENCHMARK-010","Placebo",0,"Y",14.5,15,0.73,12.4,0.88,0,0,0
"SUBJ-0069","BENCHMARK-010","Placebo",0,"Y",40.1,36.7,0.2,11.7,0.88,0,0,0
"SUBJ-0070","BENCHMARK-010","Placebo",0,"Y",35.9,13.4,1.01,10.1,1.27,0,0,0
"SUBJ-0071","BENCHMARK-010","Placebo",0,"Y",22,30.7,0.76,13.8,0.71,0,0,0
"SUBJ-0072","BENCHMARK-010","Placebo",0,"Y",16.9,21.8,0.43,11.2,0.65,0,0,0
"SUBJ-0073","BENCHMARK-010","Placebo",0,"Y",13.9,28.2,0.68,11.9,1.23,0,0,0
"SUBJ-0074","BENCHMARK-010","Placebo",0,"Y",30.9,16,0.37,12,0.54,0,0,0
"SUBJ-0075","BENCHMARK-010","Placebo",0,"Y",38.2,31.1,0.56,13.1,0.82,0,0,0
"SUBJ-0076","BENCHMARK-010","Placebo",0,"Y",20.6,29.8,0.88,12.4,1.1,0,0,0
"SUBJ-0077","BENCHMARK-010","Placebo",0,"Y",5,29.5,0.79,11.9,0.9,0,0,0
"SUBJ-0078","BENCHMARK-010","Placebo",0,"Y",28.4,27.8,0.88,11.4,0.93,0,0,0
"SUBJ-0079","BENCHMARK-010","Placebo",0,"Y",27.9,12.8,0.6,13.6,1.15,0,0,0
"SUBJ-0080","BENCHMARK-010","Placebo",0,"Y",5,26.2,1.19,12.6,1.01,0,0,0
"SUBJ-0081","BENCHMARK-010","Placebo",0,"Y",47.9,25.7,0.42,16.2,0.64,0,0,0
"SUBJ-0082","BENCHMARK-010","Placebo",0,"Y",11.6,23.6,0.94,9.5,0.94,0,0,0
"SUBJ-0083","BENCHMARK-010","Placebo",0,"Y",5,30.5,0.84,14.9,0.74,0,0,0
"SUBJ-0084","BENCHMARK-010","Placebo",0,"Y",5,32.2,0.57,11.2,1.04,0,0,0
"SUBJ-0085","BENCHMARK-010","Placebo",0,"Y",13,43.4,0.88,12.1,0.93,0,0,0
"SUBJ-0086","BENCHMARK-010","Placebo",0,"Y",11.7,32.1,1.3,13.6,0.9,0,0,0
"SUBJ-0087","BENCHMARK-010","Placebo",0,"Y",33.1,19.5,0.57,13.5,0.52,0,0,0
"SUBJ-0088","BENCHMARK-010","Placebo",0,"Y",29.8,23.3,0.4,12.9,1.01,0,0,0
"SUBJ-0089","BENCHMARK-010","Placebo",0,"Y",15.4,24.7,0.44,11.9,0.96,0,0,0
"SUBJ-0090","BENCHMARK-010","Placebo",0,"Y",13.8,32.8,0.73,11.6,0.59,0,0,0
"SUBJ-0091","BENCHMARK-010","Placebo",0,"Y",5,34.7,0.49,16.7,0.75,0,0,0
"SUBJ-0092","BENCHMARK-010","Placebo",0,"Y",26.2,27.1,0.42,8,0.79,0,0,0
"SUBJ-0093","BENCHMARK-010","Placebo",0,"Y",11.3,25.2,0.52,13.1,1.02,0,0,0
"SUBJ-0094","BENCHMARK-010","Placebo",0,"Y",33.3,21.2,0.94,13.1,0.59,0,0,0
"SUBJ-0095","BENCHMARK-010","Placebo",0,"Y",15.7,7.8,0.78,12.4,0.64,0,0,0
"SUBJ-0096","BENCHMARK-010","Placebo",0,"Y",33.9,22.8,0.2,12.7,0.98,0,0,0
"SUBJ-0097","BENCHMARK-010","Placebo",0,"Y",9.6,24,0.67,13.1,0.9,0,0,0
"SUBJ-0098","BENCHMARK-010","Placebo",0,"Y",11.6,24.6,0.6,13,0.83,0,0,0
"SUBJ-0099","BENCHMARK-010","Placebo",0,"Y",21,22.9,0.59,13.2,0.95,0,0,0
"SUBJ-0100","BENCHMARK-010","Placebo",0,"Y",31.3,21.9,0.49,15.3,0.85,0,0,0
"SUBJ-0101","BENCHMARK-010","Placebo",0,"Y",30.2,15.6,1.05,10.6,0.54,0,0,0
"SUBJ-0102","BENCHMARK-010","Placebo",0,"Y",17.5,17,0.46,12.4,0.66,0,0,0
"SUBJ-0103","BENCHMARK-010","Placebo",0,"Y",12.3,6.3,0.72,12,1,0,0,0
"SUBJ-0104","BENCHMARK-010","Placebo",0,"Y",32.2,41.5,0.97,12.7,0.67,0,0,0
"SUBJ-0105","BENCHMARK-010","Placebo",0,"Y",22.8,28.3,0.82,12.4,1.19,0,0,0
"SUBJ-0106","BENCHMARK-010","Placebo",0,"Y",31.2,16.9,0.7,10.8,1.2,0,0,0
"SUBJ-0107","BENCHMARK-010","Placebo",0,"Y",47.7,19.2,0.42,11.9,0.61,0,0,0
"SUBJ-0108","BENCHMARK-010","Placebo",0,"Y",25.7,29.1,0.26,12.9,1.11,0,0,0
"SUBJ-0109","BENCHMARK-010","Placebo",0,"Y",40.6,28.7,0.51,12.4,0.93,0,0,0
"SUBJ-0110","BENCHMARK-010","Placebo",0,"Y",10.1,11.6,0.91,13.4,0.95,0,0,0
"SUBJ-0111","BENCHMARK-010","Placebo",0,"Y",23.3,28.5,0.57,13.6,0.92,0,0,0
"SUBJ-0112","BENCHMARK-010","Placebo",0,"Y",21,21.4,0.65,11.8,0.97,0,0,0
"SUBJ-0113","BENCHMARK-010","Placebo",0,"Y",5.7,16.8,0.7,11.2,0.82,0,0,0
"SUBJ-0114","BENCHMARK-010","Placebo",0,"Y",29.6,21.8,1,11.9,0.79,0,0,0
"SUBJ-0115","BENCHMARK-010","Placebo",0,"Y",9.7,26.6,0.53,12.1,1.25,0,0,0
"SUBJ-0116","BENCHMARK-010","Placebo",0,"Y",29.9,36.9,0.54,10.5,0.73,0,0,0
"SUBJ-0117","BENCHMARK-010","Placebo",0,"Y",14.5,8.5,0.93,10.4,0.76,0,0,0
"SUBJ-0118","BENCHMARK-010","Placebo",0,"Y",17.4,14.9,0.65,10.8,0.68,0,0,0
"SUBJ-0119","BENCHMARK-010","Placebo",0,"Y",19.5,6.2,0.87,14.1,0.96,0,0,0
"SUBJ-0120","BENCHMARK-010","Placebo",0,"Y",6.4,18.9,0.76,13.5,0.77,0,0,0
"SUBJ-0121","BENCHMARK-010","Placebo",0,"Y",36.6,32.3,1.19,13.9,0.92,0,0,0
"SUBJ-0122","BENCHMARK-010","Placebo",0,"Y",17.9,33.9,0.88,11.9,0.96,0,0,0
"SUBJ-0123","BENCHMARK-010","Placebo",0,"Y",34.7,36.7,0.56,11,1.39,0,0,0
"SUBJ-0124","BENCHMARK-010","Placebo",0,"Y",21.8,30.1,0.65,12.8,0.64,0,0,0
"SUBJ-0125","BENCHMARK-010","Placebo",0,"Y",21.9,31.1,0.93,14.3,1.14,0,0,0
"SUBJ-0126","BENCHMARK-010","Placebo",0,"Y",10.3,12,0.75,12.1,0.93,0,0,0
"SUBJ-0127","BENCHMARK-010","Placebo",0,"Y",30.6,18.5,0.28,13,0.66,0,0,0
"SUBJ-0128","BENCHMARK-010","Placebo",0,"Y",24.7,36.8,0.74,12.9,1.29,0,0,0
"SUBJ-0129","BENCHMARK-010","Placebo",0,"Y",18.4,17.4,0.94,13.8,1.18,0,0,0
"SUBJ-0130","BENCHMARK-010","Placebo",0,"Y",33.4,28.7,0.44,12.1,1,0,0,0
"SUBJ-0131","BENCHMARK-010","Placebo",0,"Y",28.5,18.7,0.9,12.9,1.27,0,0,0
"SUBJ-0132","BENCHMARK-010","Placebo",0,"Y",24.8,20.3,0.44,11.7,0.97,0,0,0
"SUBJ-0133","BENCHMARK-010","Placebo",0,"Y",24.2,14.8,0.77,13.3,0.84,0,0,0
"SUBJ-0134","BENCHMARK-010","Placebo",0,"Y",37.6,21.3,0.83,11.4,1.1,0,0,0
"SUBJ-0135","BENCHMARK-010","Placebo",0,"Y",22.7,25.4,0.25,12.7,1.15,0,0,0
"SUBJ-0136","BENCHMARK-010","Placebo",0,"Y",48.3,26.4,0.66,14.3,0.53,0,0,0
"SUBJ-0137","BENCHMARK-010","Placebo",0,"Y",29.6,26.6,0.7,12.3,0.98,0,0,0
"SUBJ-0138","BENCHMARK-010","Placebo",0,"Y",21.4,23.7,0.41,15.7,1.11,0,0,0
"SUBJ-0139","BENCHMARK-010","Placebo",0,"Y",37.4,22.9,0.66,12,1.01,0,0,0
"SUBJ-0140","BENCHMARK-010","Placebo",0,"Y",6.6,35.7,0.71,13.3,0.84,0,0,0
"SUBJ-0141","BENCHMARK-010","Placebo",0,"Y",38.9,24.4,0.44,10.6,0.79,0,0,0
"SUBJ-0142","BENCHMARK-010","Placebo",0,"Y",5,25.6,0.83,12.3,0.83,0,0,0
"SUBJ-0143","BENCHMARK-010","Placebo",0,"Y",35.5,38.3,0.51,10.5,0.94,0,0,0
"SUBJ-0144","BENCHMARK-010","Placebo",0,"Y",39.5,17.5,0.41,11.4,0.84,0,0,0
"SUBJ-0145","BENCHMARK-010","Placebo",0,"Y",5,15.1,0.96,10.7,0.92,0,0,0
"SUBJ-0146","BENCHMARK-010","Placebo",0,"Y",19.9,35.4,0.65,9.9,1.02,0,0,0
"SUBJ-0147","BENCHMARK-010","Placebo",0,"Y",11.7,49.3,1.06,12,1.05,0,0,0
"SUBJ-0148","BENCHMARK-010","Placebo",0,"Y",24.3,25.2,0.36,9.7,0.87,0,0,0
"SUBJ-0149","BENCHMARK-010","Placebo",0,"Y",15.3,35.8,0.72,12.1,0.71,0,0,0
"SUBJ-0150","BENCHMARK-010","Placebo",0,"Y",18,16.3,0.64,14,0.88,0,0,0
"SUBJ-0151","BENCHMARK-010","Placebo",0,"Y",13,19.2,0.3,12.8,0.92,0,0,0
"SUBJ-0152","BENCHMARK-010","Placebo",0,"Y",36.1,34.8,0.88,11,0.48,0,0,0
"SUBJ-0153","BENCHMARK-010","Placebo",0,"Y",33.8,12.9,0.81,11,0.52,0,0,0
"SUBJ-0154","BENCHMARK-010","Placebo",0,"Y",30.2,14.2,0.78,13.6,0.84,0,0,0
"SUBJ-0155","BENCHMARK-010","Placebo",0,"Y",26.4,42.8,0.62,9.6,0.74,0,0,0
"SUBJ-0156","BENCHMARK-010","Placebo",0,"Y",28.3,8,1.01,12.4,0.81,0,0,0
"SUBJ-0157","BENCHMARK-010","Placebo",0,"Y",20.3,32.7,0.63,10.2,0.76,0,0,0
"SUBJ-0158","BENCHMARK-010","Placebo",0,"Y",51.8,36.5,0.5,12.7,0.47,0,0,0
"SUBJ-0159","BENCHMARK-010","Placebo",0,"Y",25.2,37.6,0.77,10,0.84,0,0,0
"SUBJ-0160","BENCHMARK-010","Placebo",0,"Y",31.5,25.1,0.53,13,0.81,0,0,0
"SUBJ-0161","BENCHMARK-010","Placebo",0,"Y",32.6,26.9,0.2,10.8,0.83,0,0,0
"SUBJ-0162","BENCHMARK-010","Placebo",0,"Y",33.7,28.2,0.77,13.1,0.75,0,0,0
"SUBJ-0163","BENCHMARK-010","Placebo",0,"Y",39.8,28.1,0.64,14.3,1.18,0,0,0
"SUBJ-0164","BENCHMARK-010","Placebo",0,"Y",20.8,24.2,0.86,10.2,0.82,0,0,0
"SUBJ-0165","BENCHMARK-010","Placebo",0,"Y",5,18.7,0.83,11.2,0.76,0,0,0
"SUBJ-0166","BENCHMARK-010","Placebo",0,"Y",50.8,26.7,0.76,10.7,0.92,0,0,0
"SUBJ-0167","BENCHMARK-010","Placebo",0,"Y",20,33.2,0.61,12.8,0.93,0,0,0
"SUBJ-0168","BENCHMARK-010","Placebo",0,"Y",20.9,27,0.51,14,0.98,0,0,0
"SUBJ-0169","BENCHMARK-010","Placebo",0,"Y",42.4,24.7,0.87,12.7,0.56,0,0,0
"SUBJ-0170","BENCHMARK-010","Placebo",0,"Y",29.7,24,1.15,17.4,1.08,0,0,0
"SUBJ-0171","BENCHMARK-010","Placebo",0,"Y",9.5,10.4,0.48,12.3,0.87,0,0,0
"SUBJ-0172","BENCHMARK-010","Placebo",0,"Y",27.2,33,1.01,12.7,0.94,0,0,0
"SUBJ-0173","BENCHMARK-010","Placebo",0,"Y",5.7,27.2,1.17,12.3,0.82,0,0,0
"SUBJ-0174","BENCHMARK-010","Placebo",0,"Y",21.3,28.7,1.09,13.4,0.81,0,0,0
"SUBJ-0175","BENCHMARK-010","Placebo",0,"Y",5,27.1,0.6,12.3,0.97,0,0,0
"SUBJ-0176","BENCHMARK-010","Placebo",0,"Y",29.6,25.1,0.73,12.1,0.96,0,0,0
"SUBJ-0177","BENCHMARK-010","Placebo",0,"Y",5,30.6,0.31,11.8,0.88,0,0,0
"SUBJ-0178","BENCHMARK-010","Placebo",0,"Y",9.5,33,0.64,11.3,1.02,0,0,0
"SUBJ-0179","BENCHMARK-010","Placebo",0,"Y",5,5,0.57,14.5,1.13,0,0,0
"SUBJ-0180","BENCHMARK-010","Placebo",0,"Y",31.9,30.1,0.92,13.4,0.72,0,0,0
"SUBJ-0181","BENCHMARK-010","Placebo",0,"Y",9.7,35.5,0.51,14.5,0.81,0,0,0
"SUBJ-0182","BENCHMARK-010","Placebo",0,"Y",5.2,19.7,0.54,11.7,0.87,0,0,0
"SUBJ-0183","BENCHMARK-010","Placebo",0,"Y",5,32.5,0.72,12.9,0.65,0,0,0
"SUBJ-0184","BENCHMARK-010","Placebo",0,"Y",39.7,39.6,0.48,13.1,1.08,0,0,0
"SUBJ-0185","BENCHMARK-010","Placebo",0,"Y",18.9,38.3,0.27,10,0.89,0,0,0
"SUBJ-0186","BENCHMARK-010","Placebo",0,"Y",10.4,9.3,0.81,14,0.66,0,0,0
"SUBJ-0187","BENCHMARK-010","Placebo",0,"Y",15.3,5,0.27,12.6,0.94,0,0,0
"SUBJ-0188","BENCHMARK-010","Placebo",0,"Y",5,25.3,0.62,13.2,0.85,0,0,0
"SUBJ-0189","BENCHMARK-010","Placebo",0,"Y",41.5,29.2,0.98,13.5,0.8,0,0,0
"SUBJ-0190","BENCHMARK-010","Placebo",0,"Y",18.1,28.6,0.8,12.8,0.75,0,0,0
"SUBJ-0191","BENCHMARK-010","Placebo",0,"Y",17.1,32.6,0.85,10.3,1.28,0,0,0
"SUBJ-0192","BENCHMARK-010","Placebo",0,"Y",33.1,9.9,0.45,13.5,1.15,0,0,0
"SUBJ-0193","BENCHMARK-010","Placebo",0,"Y",35.8,18.9,0.38,13.5,0.79,0,0,0
"SUBJ-0194","BENCHMARK-010","Placebo",0,"Y",32.8,31.8,0.91,12.2,0.95,0,0,0
"SUBJ-0195","BENCHMARK-010","Placebo",0,"Y",13.7,15.8,0.4,13.6,0.94,0,0,0
"SUBJ-0196","BENCHMARK-010","Placebo",0,"Y",5.2,34.8,1.03,12.6,1.05,0,0,0
"SUBJ-0197","BENCHMARK-010","Placebo",0,"Y",14.7,27.8,0.79,10,0.8,0,0,0
"SUBJ-0198","BENCHMARK-010","Placebo",0,"Y",21.9,45.5,0.71,13.4,1.24,0,0,0
"SUBJ-0199","BENCHMARK-010","Placebo",0,"Y",19.7,26.5,0.78,13,1.04,0,0,0
"SUBJ-0200","BENCHMARK-010","Placebo",0,"Y",35,24.3,0.39,14.1,1.03,0,0,0
"SUBJ-0201","BENCHMARK-010","Active",1,"Y",37.8,33.8,0.82,9.7,0.81,0,0,0
"SUBJ-0202","BENCHMARK-010","Active",1,"Y",24.7,13.1,0.96,10.4,1.1,0,0,0
"SUBJ-0203","BENCHMARK-010","Active",1,"Y",35.1,38,0.46,9.5,1.04,0,0,0
"SUBJ-0204","BENCHMARK-010","Active",1,"Y",29.8,35.1,0.66,10.4,1.03,0,0,0
"SUBJ-0205","BENCHMARK-010","Active",1,"Y",30.2,47.6,0.49,12.5,0.75,0,0,0
"SUBJ-0206","BENCHMARK-010","Active",1,"Y",33.1,45.7,0.72,12.8,0.97,0,0,0
"SUBJ-0207","BENCHMARK-010","Active",1,"Y",50.2,29.6,0.59,11.1,0.87,0,0,0
"SUBJ-0208","BENCHMARK-010","Active",1,"Y",27.8,32.3,0.95,10.5,0.91,0,0,0
"SUBJ-0209","BENCHMARK-010","Active",1,"Y",22.1,22,0.4,9.8,0.92,0,0,0
"SUBJ-0210","BENCHMARK-010","Active",1,"Y",12.6,42.7,0.67,14.3,0.64,0,0,0
"SUBJ-0211","BENCHMARK-010","Active",1,"Y",29.7,28.8,0.71,13,0.95,0,0,0
"SUBJ-0212","BENCHMARK-010","Active",1,"Y",52.6,17.2,0.25,9.8,0.64,0,0,0
"SUBJ-0213","BENCHMARK-010","Active",1,"Y",34.6,39.3,0.64,11.7,0.94,0,0,0
"SUBJ-0214","BENCHMARK-010","Active",1,"Y",26.7,38.5,0.47,11.2,1.22,0,0,0
"SUBJ-0215","BENCHMARK-010","Active",1,"Y",44,37,0.53,11.5,1.13,0,0,0
"SUBJ-0216","BENCHMARK-010","Active",1,"Y",11.3,37.6,0.88,12,0.98,0,0,0
"SUBJ-0217","BENCHMARK-010","Active",1,"Y",13.4,35.4,0.9,14.8,0.69,0,0,0
"SUBJ-0218","BENCHMARK-010","Active",1,"Y",48.8,38.4,0.38,13.1,0.8,0,0,0
"SUBJ-0219","BENCHMARK-010","Active",1,"Y",28.6,30.4,0.68,12.1,0.91,0,0,0
"SUBJ-0220","BENCHMARK-010","Active",1,"Y",42.2,45.1,0.3,10.1,0.77,0,0,0
"SUBJ-0221","BENCHMARK-010","Active",1,"Y",29.9,32.1,0.91,13.9,0.91,0,0,0
"SUBJ-0222","BENCHMARK-010","Active",1,"Y",41.9,40.1,0.56,12.4,0.71,0,0,0
"SUBJ-0223","BENCHMARK-010","Active",1,"Y",60.8,21.9,0.95,12,1.01,0,0,0
"SUBJ-0224","BENCHMARK-010","Active",1,"Y",44.9,12.8,0.38,11,0.88,0,0,0
"SUBJ-0225","BENCHMARK-010","Active",1,"Y",16.8,32.7,1.02,9.3,0.75,0,0,0
"SUBJ-0226","BENCHMARK-010","Active",1,"Y",24.7,20.7,0.55,12.9,0.75,0,0,0
"SUBJ-0227","BENCHMARK-010","Active",1,"Y",20.3,5,0.5,11.3,0.82,0,0,0
"SUBJ-0228","BENCHMARK-010","Active",1,"Y",20.6,31.9,0.59,13.2,0.94,0,0,0
"SUBJ-0229","BENCHMARK-010","Active",1,"Y",41.3,35.7,0.43,13.1,0.93,0,0,0
"SUBJ-0230","BENCHMARK-010","Active",1,"Y",33.8,38.6,0.2,11.4,0.87,0,0,0
"SUBJ-0231","BENCHMARK-010","Active",1,"Y",48.5,18.7,0.7,10.8,0.73,0,0,0
"SUBJ-0232","BENCHMARK-010","Active",1,"Y",42.1,25.1,1.15,13.6,1.15,0,0,0
"SUBJ-0233","BENCHMARK-010","Active",1,"Y",23.6,45.6,0.72,12.4,0.96,0,0,0
"SUBJ-0234","BENCHMARK-010","Active",1,"Y",35.6,33.8,0.77,11.8,0.8,0,0,0
"SUBJ-0235","BENCHMARK-010","Active",1,"Y",48.1,24.7,1.13,13.4,0.88,0,0,0
"SUBJ-0236","BENCHMARK-010","Active",1,"Y",31.7,42.8,0.64,14.5,1,0,0,0
"SUBJ-0237","BENCHMARK-010","Active",1,"Y",25.5,30.8,0.48,9.4,0.54,0,0,0
"SUBJ-0238","BENCHMARK-010","Active",1,"Y",17.2,20.3,0.78,12.1,0.65,0,0,0
"SUBJ-0239","BENCHMARK-010","Active",1,"Y",41.6,19.1,0.69,13.1,0.71,0,0,0
"SUBJ-0240","BENCHMARK-010","Active",1,"Y",44.8,29.8,0.62,10.5,1.07,0,0,0
"SUBJ-0241","BENCHMARK-010","Active",1,"Y",28.1,36.7,0.76,10.7,0.86,0,0,0
"SUBJ-0242","BENCHMARK-010","Active",1,"Y",35.2,34.3,0.63,9.5,1.03,0,0,0
"SUBJ-0243","BENCHMARK-010","Active",1,"Y",37.8,34.5,0.5,11.4,0.81,0,0,0
"SUBJ-0244","BENCHMARK-010","Active",1,"Y",18,18.4,0.27,10.5,1.15,0,0,0
"SUBJ-0245","BENCHMARK-010","Active",1,"Y",49.1,33.4,0.46,9.7,1.12,0,0,0
"SUBJ-0246","BENCHMARK-010","Active",1,"Y",12.7,36,0.52,14.1,0.97,0,0,0
"SUBJ-0247","BENCHMARK-010","Active",1,"Y",35.2,11.7,0.77,9.7,0.65,0,0,0
"SUBJ-0248","BENCHMARK-010","Active",1,"Y",36.8,47.4,0.64,11.6,0.85,0,0,0
"SUBJ-0249","BENCHMARK-010","Active",1,"Y",35.2,34.5,0.51,11.6,0.63,0,0,0
"SUBJ-0250","BENCHMARK-010","Active",1,"Y",31.3,32.2,0.37,12.3,0.58,0,0,0
"SUBJ-0251","BENCHMARK-010","Active",1,"Y",31.1,25.2,0.71,9.8,0.73,0,0,0
"SUBJ-0252","BENCHMARK-010","Active",1,"Y",21,23.3,0.98,12,1.07,0,0,0
"SUBJ-0253","BENCHMARK-010","Active",1,"Y",25.9,17.8,0.51,15,1.13,0,0,0
"SUBJ-0254","BENCHMARK-010","Active",1,"Y",27.8,24.5,1,13.7,0.95,0,0,0
"SUBJ-0255","BENCHMARK-010","Active",1,"Y",5,30.6,0.54,10.4,1.03,0,0,0
"SUBJ-0256","BENCHMARK-010","Active",1,"Y",33.6,21.2,1.33,11.1,0.75,0,0,0
"SUBJ-0257","BENCHMARK-010","Active",1,"Y",33.1,23.2,0.6,11.9,0.86,0,0,0
"SUBJ-0258","BENCHMARK-010","Active",1,"Y",22.6,14.4,0.94,12.6,0.65,0,0,0
"SUBJ-0259","BENCHMARK-010","Active",1,"Y",44.9,19.6,0.82,12.1,0.87,0,0,0
"SUBJ-0260","BENCHMARK-010","Active",1,"Y",13.1,37,0.66,11.2,1.35,0,0,0
"SUBJ-0261","BENCHMARK-010","Active",1,"Y",28.7,9.8,0.43,12.7,0.96,0,0,0
"SUBJ-0262","BENCHMARK-010","Active",1,"Y",45.9,28,0.77,10.7,0.93,0,0,0
"SUBJ-0263","BENCHMARK-010","Active",1,"Y",43.1,22.8,0.95,11.7,1.2,0,0,0
"SUBJ-0264","BENCHMARK-010","Active",1,"Y",61.9,28.3,0.67,12,1.26,0,0,0
"SUBJ-0265","BENCHMARK-010","Active",1,"Y",41.2,38,0.64,11.6,0.91,0,0,0
"SUBJ-0266","BENCHMARK-010","Active",1,"Y",30,24.8,1.17,12.8,1.08,0,0,0
"SUBJ-0267","BENCHMARK-010","Active",1,"Y",18.2,25.5,0.49,10.4,0.76,0,0,0
"SUBJ-0268","BENCHMARK-010","Active",1,"Y",49.2,24.1,0.63,10.6,0.47,0,0,0
"SUBJ-0269","BENCHMARK-010","Active",1,"Y",17.3,22.3,0.55,11.9,0.88,0,0,0
"SUBJ-0270","BENCHMARK-010","Active",1,"Y",29.4,33.9,1.16,10.8,0.79,0,0,0
"SUBJ-0271","BENCHMARK-010","Active",1,"Y",32.9,27.6,0.95,12.4,1.12,0,0,0
"SUBJ-0272","BENCHMARK-010","Active",1,"Y",30,24.5,0.79,9.7,1.09,0,0,0
"SUBJ-0273","BENCHMARK-010","Active",1,"Y",31.8,26.3,0.62,11,1,0,0,0
"SUBJ-0274","BENCHMARK-010","Active",1,"Y",35.2,28,1,8.7,1.01,0,0,0
"SUBJ-0275","BENCHMARK-010","Active",1,"Y",31.6,41.5,0.89,14.3,0.99,0,0,0
"SUBJ-0276","BENCHMARK-010","Active",1,"Y",23.8,14,0.8,11.9,0.93,0,0,0
"SUBJ-0277","BENCHMARK-010","Active",1,"Y",11.1,29.3,0.67,11.8,0.88,0,0,0
"SUBJ-0278","BENCHMARK-010","Active",1,"Y",29.5,20.2,0.76,10.9,0.81,0,0,0
"SUBJ-0279","BENCHMARK-010","Active",1,"Y",35,29,0.25,11.1,0.86,0,0,0
"SUBJ-0280","BENCHMARK-010","Active",1,"Y",31.8,30.1,0.2,8.8,0.86,0,0,0
"SUBJ-0281","BENCHMARK-010","Active",1,"Y",44.9,37.3,0.85,11.4,0.82,0,0,0
"SUBJ-0282","BENCHMARK-010","Active",1,"Y",46.9,25.1,1.06,11,0.97,0,0,0
"SUBJ-0283","BENCHMARK-010","Active",1,"Y",20.3,20.3,0.55,12.1,0.99,0,0,0
"SUBJ-0284","BENCHMARK-010","Active",1,"Y",41,38.8,1.08,10.6,1.39,0,0,0
"SUBJ-0285","BENCHMARK-010","Active",1,"Y",22.4,13.8,0.88,12,1,0,0,0
"SUBJ-0286","BENCHMARK-010","Active",1,"Y",46,50.4,1.06,11.9,0.98,0,0,0
"SUBJ-0287","BENCHMARK-010","Active",1,"Y",40.7,13.4,1.06,14,0.98,0,0,0
"SUBJ-0288","BENCHMARK-010","Active",1,"Y",24.6,37.5,0.63,12.2,0.65,0,0,0
"SUBJ-0289","BENCHMARK-010","Active",1,"Y",7.2,44.3,0.83,13,0.87,0,0,0
"SUBJ-0290","BENCHMARK-010","Active",1,"Y",49,9.6,0.74,12.4,0.76,0,0,0
"SUBJ-0291","BENCHMARK-010","Active",1,"Y",28.6,11.5,0.48,10.4,0.69,0,0,0
"SUBJ-0292","BENCHMARK-010","Active",1,"Y",22.9,41.5,0.77,10.7,0.59,0,0,0
"SUBJ-0293","BENCHMARK-010","Active",1,"Y",22.7,21.3,0.6,11.2,1.06,0,0,0
"SUBJ-0294","BENCHMARK-010","Active",1,"Y",49.9,31.1,0.92,9.7,1.01,0,0,0
"SUBJ-0295","BENCHMARK-010","Active",1,"Y",64.1,71.3,0.81,13,0.89,0,0,0
"SUBJ-0296","BENCHMARK-010","Active",1,"Y",36.5,26.5,0.72,11.4,0.55,0,0,0
"SUBJ-0297","BENCHMARK-010","Active",1,"Y",24.5,29.4,1.05,11.6,0.83,0,0,0
"SUBJ-0298","BENCHMARK-010","Active",1,"Y",44.2,13.2,0.82,11.9,0.98,0,0,0
"SUBJ-0299","BENCHMARK-010","Active",1,"Y",37.3,33.1,1.1,13.3,0.94,0,0,0
"SUBJ-0300","BENCHMARK-010","Active",1,"Y",38.7,11.7,0.2,11,0.7,0,0,0
"SUBJ-0301","BENCHMARK-010","Active",1,"Y",36.3,35.8,0.89,10,1.12,0,0,0
"SUBJ-0302","BENCHMARK-010","Active",1,"Y",30.2,11.2,0.32,12.4,0.56,0,0,0
"SUBJ-0303","BENCHMARK-010","Active",1,"Y",54.3,15.9,0.83,9.9,0.92,0,0,0
"SUBJ-0304","BENCHMARK-010","Active",1,"Y",28.5,19.4,0.47,11.2,0.83,0,0,0
"SUBJ-0305","BENCHMARK-010","Active",1,"Y",45.5,35.5,0.67,11.6,0.74,0,0,0
"SUBJ-0306","BENCHMARK-010","Active",1,"Y",31.2,42.2,0.76,9,0.59,0,0,0
"SUBJ-0307","BENCHMARK-010","Active",1,"Y",52.9,38.9,1.05,11.4,1.04,0,0,0
"SUBJ-0308","BENCHMARK-010","Active",1,"Y",14.7,12.9,0.7,13.2,0.8,0,0,0
"SUBJ-0309","BENCHMARK-010","Active",1,"Y",33.5,24.6,1.02,12.4,0.74,0,0,0
"SUBJ-0310","BENCHMARK-010","Active",1,"Y",43.4,21.7,0.88,12.4,0.61,0,0,0
"SUBJ-0311","BENCHMARK-010","Active",1,"Y",32.6,13.9,0.47,11.4,1.17,0,0,0
"SUBJ-0312","BENCHMARK-010","Active",1,"Y",32.3,27.9,0.58,12.2,1.01,0,0,0
"SUBJ-0313","BENCHMARK-010","Active",1,"Y",29.8,35.9,0.2,10.8,0.96,0,0,0
"SUBJ-0314","BENCHMARK-010","Active",1,"Y",42.9,31.6,0.53,13.7,0.93,0,0,0
"SUBJ-0315","BENCHMARK-010","Active",1,"Y",51.1,43.6,0.77,11.2,0.84,0,0,0
"SUBJ-0316","BENCHMARK-010","Active",1,"Y",21.4,27.8,0.68,14.1,0.85,0,0,0
"SUBJ-0317","BENCHMARK-010","Active",1,"Y",36.7,23.9,0.48,8.5,1.1,0,0,0
"SUBJ-0318","BENCHMARK-010","Active",1,"Y",55.5,29.8,0.53,10.8,0.74,0,0,0
"SUBJ-0319","BENCHMARK-010","Active",1,"Y",19.4,23.5,0.74,11.9,1.3,0,0,0
"SUBJ-0320","BENCHMARK-010","Active",1,"Y",37.8,29.9,0.72,14.5,0.74,0,0,0
"SUBJ-0321","BENCHMARK-010","Active",1,"Y",34.1,25.6,0.2,10.1,1.18,0,0,0
"SUBJ-0322","BENCHMARK-010","Active",1,"Y",42.9,29.3,0.47,11.9,0.79,0,0,0
"SUBJ-0323","BENCHMARK-010","Active",1,"Y",21.6,19.9,0.68,10.5,1,0,0,0
"SUBJ-0324","BENCHMARK-010","Active",1,"Y",34.3,30.3,0.92,10.4,0.7,0,0,0
"SUBJ-0325","BENCHMARK-010","Active",1,"Y",15.9,41.2,0.2,13,0.81,0,0,0
"SUBJ-0326","BENCHMARK-010","Active",1,"Y",26.4,7.8,0.68,11.3,0.67,0,0,0
"SUBJ-0327","BENCHMARK-010","Active",1,"Y",29,19.6,0.38,9.8,0.86,0,0,0
"SUBJ-0328","BENCHMARK-010","Active",1,"Y",11.6,28.2,0.9,11.7,1.02,0,0,0
"SUBJ-0329","BENCHMARK-010","Active",1,"Y",47,18.2,0.59,12.1,1.17,0,0,0
"SUBJ-0330","BENCHMARK-010","Active",1,"Y",27.4,37.3,0.6,10.4,0.57,0,0,0
"SUBJ-0331","BENCHMARK-010","Active",1,"Y",28.1,26.3,0.49,11.1,1.07,0,0,0
"SUBJ-0332","BENCHMARK-010","Active",1,"Y",24,32.7,0.31,13.6,1.15,0,0,0
"SUBJ-0333","BENCHMARK-010","Active",1,"Y",30.3,28.7,0.38,11.2,0.92,0,0,0
"SUBJ-0334","BENCHMARK-010","Active",1,"Y",28.1,9.2,0.59,7.5,0.77,0,0,0
"SUBJ-0335","BENCHMARK-010","Active",1,"Y",20.9,12.5,0.83,12.7,1.05,0,0,0
"SUBJ-0336","BENCHMARK-010","Active",1,"Y",12.4,30.8,0.79,10.5,1.09,0,0,0
"SUBJ-0337","BENCHMARK-010","Active",1,"Y",40,26.6,1.14,11.6,0.96,0,0,0
"SUBJ-0338","BENCHMARK-010","Active",1,"Y",43.1,37.1,0.77,12.4,1.07,0,0,0
"SUBJ-0339","BENCHMARK-010","Active",1,"Y",35,37.3,0.58,8,0.81,0,0,0
"SUBJ-0340","BENCHMARK-010","Active",1,"Y",41.1,10.3,0.84,14.1,1.32,0,0,0
"SUBJ-0341","BENCHMARK-010","Active",1,"Y",11,26.6,0.62,14.4,0.56,0,0,0
"SUBJ-0342","BENCHMARK-010","Active",1,"Y",21.5,33.6,1.04,10.2,0.84,0,0,0
"SUBJ-0343","BENCHMARK-010","Active",1,"Y",31.9,35.2,0.72,12.9,0.82,0,0,0
"SUBJ-0344","BENCHMARK-010","Active",1,"Y",26.8,35.5,1.29,15.6,0.66,0,0,0
"SUBJ-0345","BENCHMARK-010","Active",1,"Y",21.5,33.4,0.2,9.9,0.96,0,0,0
"SUBJ-0346","BENCHMARK-010","Active",1,"Y",17.2,47.6,0.38,12.7,0.7,0,0,0
"SUBJ-0347","BENCHMARK-010","Active",1,"Y",27.4,13.7,0.89,10,0.97,0,0,0
"SUBJ-0348","BENCHMARK-010","Active",1,"Y",30,14.5,0.85,10.6,0.92,0,0,0
"SUBJ-0349","BENCHMARK-010","Active",1,"Y",15.1,17.6,0.7,10.9,0.88,0,0,0
"SUBJ-0350","BENCHMARK-010","Active",1,"Y",38.3,37.9,0.2,11.2,0.75,0,0,0
"SUBJ-0351","BENCHMARK-010","Active",1,"Y",23.6,46.5,0.49,13.8,0.93,0,0,0
"SUBJ-0352","BENCHMARK-010","Active",1,"Y",46.3,28.3,0.96,13.2,0.95,0,0,0
"SUBJ-0353","BENCHMARK-010","Active",1,"Y",17.9,18.5,0.95,13.1,0.94,0,0,0
"SUBJ-0354","BENCHMARK-010","Active",1,"Y",29.5,16.9,0.56,12.2,0.93,0,0,0
"SUBJ-0355","BENCHMARK-010","Active",1,"Y",48.7,36.7,0.59,12.9,0.93,0,0,0
"SUBJ-0356","BENCHMARK-010","Active",1,"Y",27.8,31.2,0.31,11.2,0.89,0,0,0
"SUBJ-0357","BENCHMARK-010","Active",1,"Y",37.2,31.2,0.67,10.7,0.63,0,0,0
"SUBJ-0358","BENCHMARK-010","Active",1,"Y",17.3,6.2,0.8,10.1,0.53,0,0,0
"SUBJ-0359","BENCHMARK-010","Active",1,"Y",38.8,7,0.85,10.1,1.07,0,0,0
"SUBJ-0360","BENCHMARK-010","Active",1,"Y",34.7,30.7,1.2,12.8,0.76,0,0,0
"SUBJ-0361","BENCHMARK-010","Active",1,"Y",36,48.4,1.05,10.8,0.85,0,0,0
"SUBJ-0362","BENCHMARK-010","Active",1,"Y",30.5,27.7,0.91,9.7,0.84,0,0,0
"SUBJ-0363","BENCHMARK-010","Active",1,"Y",16.3,34.2,0.39,13.9,1.24,0,0,0
"SUBJ-0364","BENCHMARK-010","Active",1,"Y",8.7,30.2,0.71,13.9,1.18,0,0,0
"SUBJ-0365","BENCHMARK-010","Active",1,"Y",40.3,13.3,0.89,13.2,0.85,0,0,0
"SUBJ-0366","BENCHMARK-010","Active",1,"Y",46.6,40.3,0.48,11.4,0.83,0,0,0
"SUBJ-0367","BENCHMARK-010","Active",1,"Y",39.7,40.8,0.44,9,0.64,0,0,0
"SUBJ-0368","BENCHMARK-010","Active",1,"Y",30.2,45.1,0.31,12.9,1.07,0,0,0
"SUBJ-0369","BENCHMARK-010","Active",1,"Y",16.3,13.8,0.69,11.7,0.41,0,0,0
"SUBJ-0370","BENCHMARK-010","Active",1,"Y",26.3,19.7,0.45,10.5,0.83,0,0,0
"SUBJ-0371","BENCHMARK-010","Active",1,"Y",33.4,51.3,0.48,11.6,0.94,0,0,0
"SUBJ-0372","BENCHMARK-010","Active",1,"Y",57.5,9.6,0.57,10.9,0.72,0,0,0
"SUBJ-0373","BENCHMARK-010","Active",1,"Y",25.9,23.7,0.69,13.1,1.15,0,0,0
"SUBJ-0374","BENCHMARK-010","Active",1,"Y",39.6,35.1,0.78,9.5,0.94,0,0,0
"SUBJ-0375","BENCHMARK-010","Active",1,"Y",32.5,30.9,0.49,13.3,1.27,0,0,0
"SUBJ-0376","BENCHMARK-010","Active",1,"Y",15.9,30.9,0.66,11,1.51,0,0,0
"SUBJ-0377","BENCHMARK-010","Active",1,"Y",36.2,19.7,0.95,12.5,0.83,0,0,0
"SUBJ-0378","BENCHMARK-010","Active",1,"Y",20.6,36.4,0.85,10.4,0.74,0,0,0
"SUBJ-0379","BENCHMARK-010","Active",1,"Y",40.1,13.5,1.33,12.5,1.36,0,0,0
"SUBJ-0380","BENCHMARK-010","Active",1,"Y",39.6,22.5,0.49,9.1,0.48,0,0,0
"SUBJ-0381","BENCHMARK-010","Active",1,"Y",31.8,25.8,0.73,9.9,0.96,0,0,0
"SUBJ-0382","BENCHMARK-010","Active",1,"Y",30,19.1,0.68,13.5,1.01,0,0,0
"SUBJ-0383","BENCHMARK-010","Active",1,"Y",33.4,36.8,1.19,7.6,1.25,0,0,0
"SUBJ-0384","BENCHMARK-010","Active",1,"Y",43.1,27.7,0.57,12.5,0.76,0,0,0
"SUBJ-0385","BENCHMARK-010","Active",1,"Y",55.5,35.5,0.52,11.5,0.69,0,0,0
"SUBJ-0386","BENCHMARK-010","Active",1,"Y",19.2,29.4,0.93,9.7,0.93,0,0,0
"SUBJ-0387","BENCHMARK-010","Active",1,"Y",20.4,24,1,10.7,1.06,0,0,0
"SUBJ-0388","BENCHMARK-010","Active",1,"Y",53,36,0.94,11.9,1.17,0,0,0
"SUBJ-0389","BENCHMARK-010","Active",1,"Y",30.9,48.2,0.46,11.2,1.21,0,0,0
"SUBJ-0390","BENCHMARK-010","Active",1,"Y",24.4,35.5,0.61,12.2,0.82,0,0,0
"SUBJ-0391","BENCHMARK-010","Active",1,"Y",38,36.9,1.31,12.1,0.59,0,0,0
"SUBJ-0392","BENCHMARK-010","Active",1,"Y",55.7,27.8,0.23,14.9,1.09,0,0,0
"SUBJ-0393","BENCHMARK-010","Active",1,"Y",25.6,40.4,1.16,10.8,0.82,0,0,0
"SUBJ-0394","BENCHMARK-010","Active",1,"Y",35.8,29.4,0.9,12.4,0.64,0,0,0
"SUBJ-0395","BENCHMARK-010","Active",1,"Y",38.1,31.7,0.55,11.2,1.06,0,0,0
"SUBJ-0396","BENCHMARK-010","Active",1,"Y",28.4,30.5,0.63,9.5,1.06,0,0,0
"SUBJ-0397","BENCHMARK-010","Active",1,"Y",46.2,23,0.45,12.1,0.84,0,0,0
"SUBJ-0398","BENCHMARK-010","Active",1,"Y",31.9,34.5,0.61,9,0.4,0,0,0
"SUBJ-0399","BENCHMARK-010","Active",1,"Y",17.4,13.1,0.8,12.6,0.9,0,0,0
"SUBJ-0400","BENCHMARK-010","Active",1,"Y",39.2,25.3,0.86,11.6,0.96,0,0,0
