"USUBJID","STUDYID","TRT01P","TRT01PN","ITTFL","PARAM","PARAMCD","AVALC","AVAL","RESPONSE_DAY"
"SUBJ-0001","BENCHMARK-010","Placebo",0,"Y","Best Overall Response","BOR","PR",1,33
"SUBJ-0002","BENCHMARK-010","Placebo",0,"Y","Best Overall Response","BOR","PD",3,49
"SUBJ-0003","BENCHMARK-010","Placebo",0,"Y","Best Overall Response","BOR","PD",3,113
"SUBJ-0004","BENCHMARK-010","Placebo",0,"Y","Best Overall Response","BOR","PD",3,91
"SUBJ-0005","BENCHMARK-010","Placebo",0,"Y","Best Overall Response","BOR","PD",3,99
"SUBJ-0006","BENCHMARK-010","Placebo",0,"Y","Best Overall Response","BOR","SD",2,35
"SUBJ-0007","BENCHMARK-010","Placebo",0,"Y","Best Overall Response","BOR","PD",3,113
"SUBJ-0008","BENCHMARK-010","Placebo",0,"Y","Best Overall Response","BOR","SD",2,56
"SUBJ-0009","BENCHMARK-010","Placebo",0,"Y","Best Overall Response","BOR","PR",1,97
"SUBJ-0010","BENCHMARK-010","Placebo",0,"Y","Best Overall Response","BOR","PD",3,86
"SUBJ-0011","BENCHMARK-010","Placebo",0,"Y","Best Overall Response","BOR","SD",2,78
"SUBJ-0012","BENCHMARK-010","Placebo",0,"Y","Best Overall Response","BOR","PD",3,32
"SUBJ-0013","BENCHMARK-010","Placebo",0,"Y","Best Overall Response","BOR","PD",3,117
"SUBJ-0014","BENCHMARK-010","Placebo",0,"Y","Best Overall Response","BOR","SD",2,84
"SUBJ-0015","BENCHMARK-010","Placebo",0,"Y","Best Overall Response","BOR","PD",3,68
"SUBJ-0016","BENCHMARK-010","Placebo",0,"Y","Best Overall Response","BOR","SD",2,62
"SUBJ-0017","BENCHMARK-010","Placebo",0,"Y","Best Overall Response","BOR","SD",2,32
"SUBJ-0018","BENCHMARK-010","Placebo",0,"Y","Best Overall Response","BOR","NE",4,33
"SUBJ-0019","BENCHMARK-010","Placebo",0,"Y","Best Overall Response","BOR","SD",2,77
"SUBJ-0020","BENCHMARK-010","Placebo",0,"Y","Best Overall Response","BOR","PD",3,85
"SUBJ-0021","BENCHMARK-010","Placebo",0,"Y","Best Overall Response","BOR","SD",2,32
"SUBJ-0022","BENCHMARK-010","Placebo",0,"Y","Best Overall Response","BOR","SD",2,38
"SUBJ-0023","BENCHMARK-010","Placebo",0,"Y","Best Overall Response","BOR","SD",2,113
"SUBJ-0024","BENCHMARK-010","Placebo",0,"Y","Best Overall Response","BOR","SD",2,97
"SUBJ-0025","BENCHMARK-010","Placebo",0,"Y","Best Overall Response","BOR","PD",3,37
"SUBJ-0026","BENCHMARK-010","Placebo",0,"Y","Best Overall Response","BOR","SD",2,58
"SUBJ-0027","BENCHMARK-010","Placebo",0,"Y","Best Overall Response","BOR","PD",3,110
"SUBJ-0028","BENCHMARK-010","Placebo",0,"Y","Best Overall Response","BOR","PD",3,42
"SUBJ-0029","BENCHMARK-010","Placebo",0,"Y","Best Overall Response","BOR","PR",1,51
"SUBJ-0030","BENCHMARK-010","Placebo",0,"Y","Best Overall Response","BOR","PR",1,79
"SUBJ-0031","BENCHMARK-010","Placebo",0,"Y","Best Overall Response","BOR","PD",3,62
"SUBJ-0032","BENCHMARK-010","Placebo",0,"Y","Best Overall Response","BOR","SD",2,94
"SUBJ-0033","BENCHMARK-010","Placebo",0,"Y","Best Overall Response","BOR","SD",2,114
"SUBJ-0034","BENCHMARK-010","Placebo",0,"Y","Best Overall Response","BOR","SD",2,110
"SUBJ-0035","BENCHMARK-010","Placebo",0,"Y","Best Overall Response","BOR","NE",4,92
"SUBJ-0036","BENCHMARK-010","Placebo",0,"Y","Best Overall Response","BOR","PD",3,82
"SUBJ-0037","BENCHMARK-010","Placebo",0,"Y","Best Overall Response","BOR","PD",3,38
"SUBJ-0038","BENCHMARK-010","Placebo",0,"Y","Best Overall Response","BOR","PD",3,50
"SUBJ-0039","BENCHMARK-010","Placebo",0,"Y","Best Overall Response","BOR","SD",2,69
"SUBJ-0040","BENCHMARK-010","Placebo",0,"Y","Best Overall Response","BOR","SD",2,38
"SUBJ-0041","BENCHMARK-010","Placebo",0,"Y","Best Overall Response","BOR","PD",3,63
"SUBJ-0042","BENCHMARK-010","Placebo",0,"Y","Best Overall Response","BOR","PD",3,120
"SUBJ-0043","BENCHMARK-010","Placebo",0,"Y","Best Overall Response","BOR","SD",2,47
"SUBJ-0044","BENCHMARK-010","Placebo",0,"Y","Best Overall Response","BOR","PD",3,70
"SUBJ-0045","BENCHMARK-010","Placebo",0,"Y","Best Overall Response","BOR","PD",3,97
"SUBJ-0046","BENCHMARK-010","Placebo",0,"Y","Best Overall Response","BOR","NE",4,42
"SUBJ-0047","BENCHMARK-010","Placebo",0,"Y","Best Overall Response","BOR","PD",3,120
"SUBJ-0048","BENCHMARK-010","Placebo",0,"Y","Best Overall Response","BOR","PD",3,102
"SUBJ-0049","BENCHMARK-010","Placebo",0,"Y","Best Overall Response","BOR","SD",2,42
"SUBJ-0050","BENCHMARK-010","Placebo",0,"Y","Best Overall Response","BOR","PD",3,94
"SUBJ-0051","BENCHMARK-010","Placebo",0,"Y","Best Overall Response","BOR","NE",4,68
"SUBJ-0052","BENCHMARK-010","Placebo",0,"Y","Best Overall Response","BOR","SD",2,59
"SUBJ-0053","BENCHMARK-010","Placebo",0,"Y","Best Overall Response","BOR","PD",3,120
"SUBJ-0054","BENCHMARK-010","Placebo",0,"Y","Best Overall Response","BOR","SD",2,97
"SUBJ-0055","BENCHMARK-010","Placebo",0,"Y","Best Overall Response","BOR","SD",2,82
"SUBJ-0056","BENCHMARK-010","Placebo",0,"Y","Best Overall Response","BOR","PD",3,40
"SUBJ-0057","BENCHMARK-010","Placebo",0,"Y","Best Overall Response","BOR","SD",2,63
"SUBJ-0058","BENCHMARK-010","Placebo",0,"Y","Best Overall Response","BOR","SD",2,88
"SUBJ-0059","BENCHMARK-010","Placebo",0,"Y","Best Overall Response","BOR","PD",3,75
"SUBJ-0060","BENCHMARK-010","Placebo",0,"Y","Best Overall Response","BOR","PD",3,61
"SUBJ-0061","BENCHMARK-010","Placebo",0,"Y","Best Overall Response","BOR","SD",2,34
"SUBJ-0062","BENCHMARK-010","Placebo",0,"Y","Best Overall Response","BOR","PD",3,99
"SUBJ-0063","BENCHMARK-010","Placebo",0,"Y","Best Overall Response","BOR","SD",2,70
"SUBJ-0064","BENCHMARK-010","Placebo",0,"Y","Best Overall Response","BOR","SD",2,80
"SUBJ-0065","BENCHMARK-010","Placebo",0,"Y","Best Overall Response","BOR","PD",3,43
"SUBJ-0066","BENCHMARK-010","Placebo",0,"Y","Best Overall Response","BOR","NE",4,91
"SUBJ-0067","BENCHMARK-010","Placebo",0,"Y","Best Overall Response","BOR","SD",2,40
"SUBJ-0068","BENCHMARK-010","Placebo",0,"Y","Best Overall Response","BOR","PD",3,74
"SUBJ-0069","BENCHMARK-010","Placebo",0,"Y","Best Overall Response","BOR","PD",3,83
"SUBJ-0070","BENCHMARK-010","Placebo",0,"Y","Best Overall Response","BOR","PD",3,67
"SUBJ-0071","BENCHMARK-010","Placebo",0,"Y","Best Overall Response","BOR","SD",2,51
"SUBJ-0072","BENCHMARK-010","Placebo",0,"Y","Best Overall Response","BOR","PD",3,36
"SUBJ-0073","BENCHMARK-010","Placebo",0,"Y","Best Overall Response","BOR","PD",3,92
"SUBJ-0074","BENCHMARK-010","Placebo",0,"Y","Best Overall Response","BOR","SD",2,97
"SUBJ-0075","BENCHMARK-010","Placebo",0,"Y","Best Overall Response","BOR","PD",3,91
"SUBJ-0076","BENCHMARK-010","Placebo",0,"Y","Best Overall Response","BOR","PD",3,111
"SUBJ-0077","BENCHMARK-010","Placebo",0,"Y","Best Overall Response","BOR","SD",2,88
"SUBJ-0078","BENCHMARK-010","Placebo",0,"Y","Best Overall Response","BOR","NE",4,118
"SUBJ-0079","BENCHMARK-010","Placebo",0,"Y","Best Overall Response","BOR","SD",2,80
"SUBJ-0080","BENCHMARK-010","Placebo",0,"Y","Best Overall Response","BOR","SD",2,111
"SUBJ-0081","BENCHMARK-010","Placebo",0,"Y","Best Overall Response","BOR","PD",3,93
"SUBJ-0082","BENCHMARK-010","Placebo",0,"Y","Best Overall Response","BOR","PD",3,119
"SUBJ-0083","BENCHMARK-010","Placebo",0,"Y","Best Overall Response","BOR","SD",2,42
"SUBJ-0084","BENCHMARK-010","Placebo",0,"Y","Best Overall Response","BOR","SD",2,119
"SUBJ-0085","BENCHMARK-010","Placebo",0,"Y","Best Overall Response","BOR","SD",2,39
"SUBJ-0086","BENCHMARK-010","Placebo",0,"Y","Best Overall Response","BOR","PD",3,79
"SUBJ-0087","BENCHMARK-010","Placebo",0,"Y","Best Overall Response","BOR","SD",2,49
"SUBJ-0088","BENCHMARK-010","Placebo",0,"Y","Best Overall Response","BOR","PD",3,91
"SUBJ-0089","BENCHMARK-010","Placebo",0,"Y","Best Overall Response","BOR","PD",3,108
"SUBJ-0090","BENCHMARK-010","Placebo",0,"Y","Best Overall Response","BOR","PD",3,118
"SUBJ-0091","BENCHMARK-010","Placebo",0,"Y","Best Overall Response","BOR","PD",3,74
"SUBJ-0092","BENCHMARK-010","Placebo",0,"Y","Best Overall Response","BOR","SD",2,83
"SUBJ-0093","BENCHMARK-010","Placebo",0,"Y","Best Overall Response","BOR","SD",2,69
"SUBJ-0094","BENCHMARK-010","Placebo",0,"Y","Best Overall Response","BOR","SD",2,36
"SUBJ-0095","BENCHMARK-010","Placebo",0,"Y","Best Overall Response","BOR","PD",3,67
"SUBJ-0096","BENCHMARK-010","Placebo",0,"Y","Best Overall Response","BOR","SD",2,81
"SUBJ-0097","BENCHMARK-010","Placebo",0,"Y","Best Overall Response","BOR","SD",2,79
"SUBJ-0098","BENCHMARK-010","Placebo",0,"Y","Best Overall Response","BOR","PD",3,64
"SUBJ-0099","BENCHMARK-010","Placebo",0,"Y","Best Overall Response","BOR","SD",2,93
"SUBJ-0100","BENCHMARK-010","Placebo",0,"Y","Best Overall Response","BOR","SD",2,67
"SUBJ-0101","BENCHMARK-010","Placebo",0,"Y","Best Overall Response","BOR","PD",3,76
"SUBJ-0102","BENCHMARK-010","Placebo",0,"Y","Best Overall Response","BOR","PD",3,104
"SUBJ-0103","BENCHMARK-010","Placebo",0,"Y","Best Overall Response","BOR","SD",2,105
"SUBJ-0104","BENCHMARK-010","Placebo",0,"Y","Best Overall Response","BOR","SD",2,60
"SUBJ-0105","BENCHMARK-010","Placebo",0,"Y","Best Overall Response","BOR","SD",2,111
"SUBJ-0106","BENCHMARK-010","Placebo",0,"Y","Best Overall Response","BOR","PD",3,95
"SUBJ-0107","BENCHMARK-010","Placebo",0,"Y","Best Overall Response","BOR","SD",2,107
"SUBJ-0108","BENCHMARK-010","Placebo",0,"Y","Best Overall Response","BOR","PD",3,106
"SUBJ-0109","BENCHMARK-010","Placebo",0,"Y","Best Overall Response","BOR","SD",2,81
"SUBJ-0110","BENCHMARK-010","Placebo",0,"Y","Best Overall Response","BOR","PD",3,94
"SUBJ-0111","BENCHMARK-010","Placebo",0,"Y","Best Overall Response","BOR","PD",3,113
"SUBJ-0112","BENCHMARK-010","Placebo",0,"Y","Best Overall Response","BOR","PD",3,53
"SUBJ-0113","BENCHMARK-010","Placebo",0,"Y","Best Overall Response","BOR","PD",3,81
"SUBJ-0114","BENCHMARK-010","Placebo",0,"Y","Best Overall Response","BOR","SD",2,94
"SUBJ-0115","BENCHMARK-010","Placebo",0,"Y","Best Overall Response","BOR","PD",3,83
"SUBJ-0116","BENCHMARK-010","Placebo",0,"Y","Best Overall Response","BOR","PR",1,106
"SUBJ-0117","BENCHMARK-010","Placebo",0,"Y","Best Overall Response","BOR","SD",2,79
"SUBJ-0118","BENCHMARK-010","Placebo",0,"Y","Best Overall Response","BOR","PR",1,63
"SUBJ-0119","BENCHMARK-010","Placebo",0,"Y","Best Overall Response","BOR","PD",3,99
"SUBJ-0120","BENCHMARK-010","Placebo",0,"Y","Best Overall Response","BOR","SD",2,66
"SUBJ-0121","BENCHMARK-010","Placebo",0,"Y","Best Overall Response","BOR","NE",4,54
"SUBJ-0122","BENCHMARK-010","Placebo",0,"Y","Best Overall Response","BOR","SD",2,83
"SUBJ-0123","BENCHMARK-010","Placebo",0,"Y","Best Overall Response","BOR","PD",3,49
"SUBJ-0124","BENCHMARK-010","Placebo",0,"Y","Best Overall Response","BOR","SD",2,74
"SUBJ-0125","BENCHMARK-010","Placebo",0,"Y","Best Overall Response","BOR","PD",3,115
"SUBJ-0126","BENCHMARK-010","Placebo",0,"Y","Best Overall Response","BOR","PD",3,40
"SUBJ-0127","BENCHMARK-010","Placebo",0,"Y","Best Overall Response","BOR","NE",4,38
"SUBJ-0128","BENCHMARK-010","Placebo",0,"Y","Best Overall Response","BOR","PD",3,83
"SUBJ-0129","BENCHMARK-010","Placebo",0,"Y","Best Overall Response","BOR","PD",3,111
"SUBJ-0130","BENCHMARK-010","Placebo",0,"Y","Best Overall Response","BOR","SD",2,64
"SUBJ-0131","BENCHMARK-010","Placebo",0,"Y","Best Overall Response","BOR","PD",3,35
"SUBJ-0132","BENCHMARK-010","Placebo",0,"Y","Best Overall Response","BOR","SD",2,89
"SUBJ-0133","BENCHMARK-010","Placebo",0,"Y","Best Overall Response","BOR","PD",3,117
"SUBJ-0134","BENCHMARK-010","Placebo",0,"Y","Best Overall Response","BOR","PD",3,57
"SUBJ-0135","BENCHMARK-010","Placebo",0,"Y","Best Overall Response","BOR","PD",3,73
"SUBJ-0136","BENCHMARK-010","Placebo",0,"Y","Best Overall Response","BOR","PD",3,71
"SUBJ-0137","BENCHMARK-010","Placebo",0,"Y","Best Overall Response","BOR","PD",3,119
"SUBJ-0138","BENCHMARK-010","Placebo",0,"Y","Best Overall Response","BOR","PD",3,82
"SUBJ-0139","BENCHMARK-010","Placebo",0,"Y","Best Overall Response","BOR","PD",3,87
"SUBJ-0140","BENCHMARK-010","Placebo",0,"Y","Best Overall Response","BOR","PD",3,78
"SUBJ-0141","BENCHMARK-010","Placebo",0,"Y","Best Overall Response","BOR","SD",2,54
"SUBJ-0142","BENCHMARK-010","Placebo",0,"Y","Best Overall Response","BOR","PD",3,41
"SUBJ-0143","BENCHMARK-010","Placebo",0,"Y","Best Overall Response","BOR","PR",1,103
"SUBJ-0144","BENCHMARK-010","Placebo",0,"Y","Best Overall Response","BOR","PD",3,94
"SUBJ-0145","BENCHMARK-010","Placebo",0,"Y","Best Overall Response","BOR","PD",3,84
"SUBJ-0146","BENCHMARK-010","Placebo",0,"Y","Best Overall Response","BOR","PD",3,65
"SUBJ-0147","BENCHMARK-010","Placebo",0,"Y","Best Overall Response","BOR","PD",3,98
"SUBJ-0148","BENCHMARK-010","Placebo",0,"Y","Best Overall Response","BOR","SD",2,68
"SUBJ-0149","BENCHMARK-010","Placebo",0,"Y","Best Overall Response","BOR","SD",2,84
"SUBJ-0150","BENCHMARK-010","Placebo",0,"Y","Best Overall Response","BOR","PD",3,108
"SUBJ-0151","BENCHMARK-010","Placebo",0,"Y","Best Overall Response","BOR","PD",3,113
"SUBJ-0152","BENCHMARK-010","Placebo",0,"Y","Best Overall Response","BOR","SD",2,94
"SUBJ-0153","BENCHMARK-010","Placebo",0,"Y","Best Overall Response","BOR","SD",2,105
"SUBJ-0154","BENCHMARK-010","Placebo",0,"Y","Best Overall Response","BOR","PD",3,115
"SUBJ-0155","BENCHMARK-010","Placebo",0,"Y","Best Overall Response","BOR","SD",2,61
"SUBJ-0156","BENCHMARK-010","Placebo",0,"Y","Best Overall Response","BOR","PD",3,86
"SUBJ-0157","BENCHMARK-010","Placebo",0,"Y","Best Overall Response","BOR","NE",4,83
"SUBJ-0158","BENCHMARK-010","Placebo",0,"Y","Best Overall Response","BOR","PD",3,104
"SUBJ-0159","BENCHMARK-010","Placebo",0,"Y","Best Overall Response","BOR","SD",2,115
"SUBJ-0160","BENCHMARK-010","Placebo",0,"Y","Best Overall Response","BOR","PD",3,34
"SUBJ-0161","BENCHMARK-010","Placebo",0,"Y","Best Overall Response","BOR","PD",3,82
"SUBJ-0162","BENCHMARK-010","Placebo",0,"Y","Best Overall Response","BOR","PD",3,90
"SUBJ-0163","BENCHMARK-010","Placebo",0,"Y","Best Overall Response","BOR","PR",1,110
"SUBJ-0164","BENCHMARK-010","Placebo",0,"Y","Best Overall Response","BOR","PD",3,58
"SUBJ-0165","BENCHMARK-010","Placebo",0,"Y","Best Overall Response","BOR","PD",3,108
"SUBJ-0166","BENCHMARK-010","Placebo",0,"Y","Best Overall Response","BOR","PD",3,75
"SUBJ-0167","BENCHMARK-010","Placebo",0,"Y","Best Overall Response","BOR","SD",2,84
"SUBJ-0168","BENCHMARK-010","Placebo",0,"Y","Best Overall Response","BOR","SD",2,63
"SUBJ-0169","BENCHMARK-010","Placebo",0,"Y","Best Overall Response","BOR","SD",2,102
"SUBJ-0170","BENCHMARK-010","Placebo",0,"Y","Best Overall Response","BOR","PD",3,112
"SUBJ-0171","BENCHMARK-010","Placebo",0,"Y","Best Overall Response","BOR","PD",3,56
"SUBJ-0172","BENCHMARK-010","Placebo",0,"Y","Best Overall Response","BOR","PD",3,37
"SUBJ-0173","BENCHMARK-010","Placebo",0,"Y","Best Overall Response","BOR","PD",3,73
"SUBJ-0174","BENCHMARK-010","Placebo",0,"Y","Best Overall Response","BOR","PD",3,119
"SUBJ-0175","BENCHMARK-010","Placebo",0,"Y","Best Overall Response","BOR","SD",2,118
"SUBJ-0176","BENCHMARK-010","Placebo",0,"Y","Best Overall Response","BOR","PD",3,45
"SUBJ-0177","BENCHMARK-010","Placebo",0,"Y","Best Overall Response","BOR","SD",2,84
"SUBJ-0178","BENCHMARK-010","Placebo",0,"Y","Best Overall Response","BOR","SD",2,39
"SUBJ-0179","BENCHMARK-010","Placebo",0,"Y","Best Overall Response","BOR","PR",1,111
"SUBJ-0180","BENCHMARK-010","Placebo",0,"Y","Best Overall Response","BOR","PD",3,70
"SUBJ-0181","BENCHMARK-010","Placebo",0,"Y","Best Overall Response","BOR","PD",3,60
"SUBJ-0182","BENCHMARK-010","Placebo",0,"Y","Best Overall Response","BOR","PD",3,93
"SUBJ-0183","BENCHMARK-010","Placebo",0,"Y","Best Overall Response","BOR","PD",3,31
"SUBJ-0184","BENCHMARK-010","Placebo",0,"Y","Best Overall Response","BOR","SD",2,98
"SUBJ-0185","BENCHMARK-010","Placebo",0,"Y","Best Overall Response","BOR","PD",3,47
"SUBJ-0186","BENCHMARK-010","Placebo",0,"Y","Best Overall Response","BOR","PR",1,91
"SUBJ-0187","BENCHMARK-010","Placebo",0,"Y","Best Overall Response","BOR","SD",2,67
"SUBJ-0188","BENCHMARK-010","Placebo",0,"Y","Best Overall Response","BOR","PR",1,75
"SUBJ-0189","BENCHMARK-010","Placebo",0,"Y","Best Overall Response","BOR","PD",3,40
"SUBJ-0190","BENCHMARK-010","Placebo",0,"Y","Best Overall Response","BOR","PD",3,89
"SUBJ-0191","BENCHMARK-010","Placebo",0,"Y","Best Overall Response","BOR","PD",3,102
"SUBJ-0192","BENCHMARK-010","Placebo",0,"Y","Best Overall Response","BOR","SD",2,105
"SUBJ-0193","BENCHMARK-010","Placebo",0,"Y","Best Overall Response","BOR","SD",2,75
"SUBJ-0194","BENCHMARK-010","Placebo",0,"Y","Best Overall Response","BOR","SD",2,90
"SUBJ-0195","BENCHMARK-010","Placebo",0,"Y","Best Overall Response","BOR","PD",3,45
"SUBJ-0196","BENCHMARK-010","Placebo",0,"Y","Best Overall Response","BOR","SD",2,110
"SUBJ-0197","BENCHMARK-010","Placebo",0,"Y","Best Overall Response","BOR","SD",2,107
"SUBJ-0198","BENCHMARK-010","Placebo",0,"Y","Best Overall Response","BOR","SD",2,120
"SUBJ-0199","BENCHMARK-010","Placebo",0,"Y","Best Overall Response","BOR","PR",1,64
"SUBJ-0200","BENCHMARK-010","Placebo",0,"Y","Best Overall Response","BOR","SD",2,91
"SUBJ-0201","BENCHMARK-010","Active",1,"Y","Best Overall Response","BOR","SD",2,41
"SUBJ-0202","BENCHMARK-010","Active",1,"Y","Best Overall Response","BOR","PD",3,99
"SUBJ-0203","BENCHMARK-010","Active",1,"Y","Best Overall Response","BOR","NE",4,71
"SUBJ-0204","BENCHMARK-010","Active",1,"Y","Best Overall Response","BOR","SD",2,113
"SUBJ-0205","BENCHMARK-010","Active",1,"Y","Best Overall Response","BOR","SD",2,81
"SUBJ-0206","BENCHMARK-010","Active",1,"Y","Best Overall Response","BOR","PR",1,88
"SUBJ-0207","BENCHMARK-010","Active",1,"Y","Best Overall Response","BOR","PD",3,119
"SUBJ-0208","BENCHMARK-010","Active",1,"Y","Best Overall Response","BOR","PR",1,111
"SUBJ-0209","BENCHMARK-010","Active",1,"Y","Best Overall Response","BOR","PR",1,84
"SUBJ-0210","BENCHMARK-010","Active",1,"Y","Best Overall Response","BOR","SD",2,107
"SUBJ-0211","BENCHMARK-010","Active",1,"Y","Best Overall Response","BOR","PD",3,62
"SUBJ-0212","BENCHMARK-010","Active",1,"Y","Best Overall Response","BOR","PR",1,88
"SUBJ-0213","BENCHMARK-010","Active",1,"Y","Best Overall Response","BOR","PD",3,44
"SUBJ-0214","BENCHMARK-010","Active",1,"Y","Best Overall Response","BOR","SD",2,66
"SUBJ-0215","BENCHMARK-010","Active",1,"Y","Best Overall Response","BOR","NE",4,81
"SUBJ-0216","BENCHMARK-010","Active",1,"Y","Best Overall Response","BOR","CR",0,96
"SUBJ-0217","BENCHMARK-010","Active",1,"Y","Best Overall Response","BOR","PR",1,63
"SUBJ-0218","BENCHMARK-010","Active",1,"Y","Best Overall Response","BOR","PD",3,56
"SUBJ-0219","BENCHMARK-010","Active",1,"Y","Best Overall Response","BOR","PD",3,102
"SUBJ-0220","BENCHMARK-010","Active",1,"Y","Best Overall Response","BOR","SD",2,74
"SUBJ-0221","BENCHMARK-010","Active",1,"Y","Best Overall Response","BOR","SD",2,85
"SUBJ-0222","BENCHMARK-010","Active",1,"Y","Best Overall Response","BOR","SD",2,54
"SUBJ-0223","BENCHMARK-010","Active",1,"Y","Best Overall Response","BOR","PR",1,113
"SUBJ-0224","BENCHMARK-010","Active",1,"Y","Best Overall Response","BOR","PR",1,109
"SUBJ-0225","BENCHMARK-010","Active",1,"Y","Best Overall Response","BOR","NE",4,83
"SUBJ-0226","BENCHMARK-010","Active",1,"Y","Best Overall Response","BOR","PR",1,69
"SUBJ-0227","BENCHMARK-010","Active",1,"Y","Best Overall Response","BOR","PD",3,37
"SUBJ-0228","BENCHMARK-010","Active",1,"Y","Best Overall Response","BOR","SD",2,120
"SUBJ-0229","BENCHMARK-010","Active",1,"Y","Best Overall Response","BOR","SD",2,47
"SUBJ-0230","BENCHMARK-010","Active",1,"Y","Best Overall Response","BOR","SD",2,102
"SUBJ-0231","BENCHMARK-010","Active",1,"Y","Best Overall Response","BOR","SD",2,74
"SUBJ-0232","BENCHMARK-010","Active",1,"Y","Best Overall Response","BOR","PD",3,105
"SUBJ-0233","BENCHMARK-010","Active",1,"Y","Best Overall Response","BOR","PR",1,95
"SUBJ-0234","BENCHMARK-010","Active",1,"Y","Best Overall Response","BOR","PD",3,86
"SUBJ-0235","BENCHMARK-010","Active",1,"Y","Best Overall Response","BOR","SD",2,119
"SUBJ-0236","BENCHMARK-010","Active",1,"Y","Best Overall Response","BOR","SD",2,45
"SUBJ-0237","BENCHMARK-010","Active",1,"Y","Best Overall Response","BOR","SD",2,97
"SUBJ-0238","BENCHMARK-010","Active",1,"Y","Best Overall Response","BOR","PR",1,96
"SUBJ-0239","BENCHMARK-010","Active",1,"Y","Best Overall Response","BOR","CR",0,95
"SUBJ-0240","BENCHMARK-010","Active",1,"Y","Best Overall Response","BOR","PR",1,32
"SUBJ-0241","BENCHMARK-010","Active",1,"Y","Best Overall Response","BOR","SD",2,39
"SUBJ-0242","BENCHMARK-010","Active",1,"Y","Best Overall Response","BOR","CR",0,85
"SUBJ-0243","BENCHMARK-010","Active",1,"Y","Best Overall Response","BOR","PR",1,88
"SUBJ-0244","BENCHMARK-010","Active",1,"Y","Best Overall Response","BOR","PD",3,37
"SUBJ-0245","BENCHMARK-010","Active",1,"Y","Best Overall Response","BOR","PD",3,39
"SUBJ-0246","BENCHMARK-010","Active",1,"Y","Best Overall Response","BOR","SD",2,73
"SUBJ-0247","BENCHMARK-010","Active",1,"Y","Best Overall Response","BOR","PR",1,55
"SUBJ-0248","BENCHMARK-010","Active",1,"Y","Best Overall Response","BOR","PR",1,97
"SUBJ-0249","BENCHMARK-010","Active",1,"Y","Best Overall Response","BOR","PR",1,103
"SUBJ-0250","BENCHMARK-010","Active",1,"Y","Best Overall Response","BOR","PD",3,111
"SUBJ-0251","BENCHMARK-010","Active",1,"Y","Best Overall Response","BOR","PD",3,105
"SUBJ-0252","BENCHMARK-010","Active",1,"Y","Best Overall Response","BOR","PR",1,93
"SUBJ-0253","BENCHMARK-010","Active",1,"Y","Best Overall Response","BOR","SD",2,61
"SUBJ-0254","BENCHMARK-010","Active",1,"Y","Best Overall Response","BOR","PD",3,79
"SUBJ-0255","BENCHMARK-010","Active",1,"Y","Best Overall Response","BOR","NE",4,56
"SUBJ-0256","BENCHMARK-010","Active",1,"Y","Best Overall Response","BOR","PR",1,112
"SUBJ-0257","BENCHMARK-010","Active",1,"Y","Best Overall Response","BOR","SD",2,65
"SUBJ-0258","BENCHMARK-010","Active",1,"Y","Best Overall Response","BOR","PD",3,98
"SUBJ-0259","BENCHMARK-010","Active",1,"Y","Best Overall Response","BOR","SD",2,117
"SUBJ-0260","BENCHMARK-010","Active",1,"Y","Best Overall Response","BOR","SD",2,64
"SUBJ-0261","BENCHMARK-010","Active",1,"Y","Best Overall Response","BOR","SD",2,30
"SUBJ-0262","BENCHMARK-010","Active",1,"Y","Best Overall Response","BOR","PR",1,72
"SUBJ-0263","BENCHMARK-010","Active",1,"Y","Best Overall Response","BOR","PR",1,70
"SUBJ-0264","BENCHMARK-010","Active",1,"Y","Best Overall Response","BOR","PR",1,68
"SUBJ-0265","BENCHMARK-010","Active",1,"Y","Best Overall Response","BOR","SD",2,108
"SUBJ-0266","BENCHMARK-010","Active",1,"Y","Best Overall Response","BOR","PR",1,38
"SUBJ-0267","BENCHMARK-010","Active",1,"Y","Best Overall Response","BOR","PR",1,69
"SUBJ-0268","BENCHMARK-010","Active",1,"Y","Best Overall Response","BOR","PD",3,107
"SUBJ-0269","BENCHMARK-010","Active",1,"Y","Best Overall Response","BOR","SD",2,41
"SUBJ-0270","BENCHMARK-010","Active",1,"Y","Best Overall Response","BOR","PD",3,56
"SUBJ-0271","BENCHMARK-010","Active",1,"Y","Best Overall Response","BOR","PD",3,97
"SUBJ-0272","BENCHMARK-010","Active",1,"Y","Best Overall Response","BOR","CR",0,81
"SUBJ-0273","BENCHMARK-010","Active",1,"Y","Best Overall Response","BOR","PR",1,103
"SUBJ-0274","BENCHMARK-010","Active",1,"Y","Best Overall Response","BOR","SD",2,101
"SUBJ-0275","BENCHMARK-010","Active",1,"Y","Best Overall Response","BOR","PD",3,40
"SUBJ-0276","BENCHMARK-010","Active",1,"Y","Best Overall Response","BOR","PD",3,55
"SUBJ-0277","BENCHMARK-010","Active",1,"Y","Best Overall Response","BOR","PD",3,64
"SUBJ-0278","BENCHMARK-010","Active",1,"Y","Best Overall Response","BOR","SD",2,43
"SUBJ-0279","BENCHMARK-010","Active",1,"Y","Best Overall Response","BOR","PD",3,97
"SUBJ-0280","BENCHMARK-010","Active",1,"Y","Best Overall Response","BOR","PD",3,35
"SUBJ-0281","BENCHMARK-010","Active",1,"Y","Best Overall Response","BOR","PD",3,50
"SUBJ-0282","BENCHMARK-010","Active",1,"Y","Best Overall Response","BOR","PR",1,42
"SUBJ-0283","BENCHMARK-010","Active",1,"Y","Best Overall Response","BOR","PR",1,74
"SUBJ-0284","BENCHMARK-010","Active",1,"Y","Best Overall Response","BOR","PD",3,95
"SUBJ-0285","BENCHMARK-010","Active",1,"Y","Best Overall Response","BOR","NE",4,66
"SUBJ-0286","BENCHMARK-010","Active",1,"Y","Best Overall Response","BOR","SD",2,92
"SUBJ-0287","BENCHMARK-010","Active",1,"Y","Best Overall Response","BOR","SD",2,69
"SUBJ-0288","BENCHMARK-010","Active",1,"Y","Best Overall Response","BOR","NE",4,97
"SUBJ-0289","BENCHMARK-010","Active",1,"Y","Best Overall Response","BOR","SD",2,69
"SUBJ-0290","BENCHMARK-010","Active",1,"Y","Best Overall Response","BOR","PD",3,58
"SUBJ-0291","BENCHMARK-010","Active",1,"Y","Best Overall Response","BOR","CR",0,111
"SUBJ-0292","BENCHMARK-010","Active",1,"Y","Best Overall Response","BOR","SD",2,87
"SUBJ-0293","BENCHMARK-010","Active",1,"Y","Best Overall Response","BOR","PR",1,108
"SUBJ-0294","BENCHMARK-010","Active",1,"Y","Best Overall Response","BOR","PD",3,79
"SUBJ-0295","BENCHMARK-010","Active",1,"Y","Best Overall Response","BOR","PD",3,91
"SUBJ-0296","BENCHMARK-010","Active",1,"Y","Best Overall Response","BOR","CR",0,52
"SUBJ-0297","BENCHMARK-010","Active",1,"Y","Best Overall Response","BOR","PR",1,67
"SUBJ-0298","BENCHMARK-010","Active",1,"Y","Best Overall Response","BOR","PR",1,80
"SUBJ-0299","BENCHMARK-010","Active",1,"Y","Best Overall Response","BOR","PR",1,34
"SUBJ-0300","BENCHMARK-010","Active",1,"Y","Best Overall Response","BOR","PR",1,41
"SUBJ-0301","BENCHMARK-010","Active",1,"Y","Best Overall Response","BOR","PD",3,46
"SUBJ-0302","BENCHMARK-010","Active",1,"Y","Best Overall Response","BOR","SD",2,57
"SUBJ-0303","BENCHMARK-010","Active",1,"Y","Best Overall Response","BOR","SD",2,108
"SUBJ-0304","BENCHMARK-010","Active",1,"Y","Best Overall Response","BOR","PR",1,86
"SUBJ-0305","BENCHMARK-010","Active",1,"Y","Best Overall Response","BOR","PR",1,47
"SUBJ-0306","BENCHMARK-010","Active",1,"Y","Best Overall Response","BOR","SD",2,96
"SUBJ-0307","BENCHMARK-010","Active",1,"Y","Best Overall Response","BOR","SD",2,64
"SUBJ-0308","BENCHMARK-010","Active",1,"Y","Best Overall Response","BOR","SD",2,73
"SUBJ-0309","BENCHMARK-010","Active",1,"Y","Best Overall Response","BOR","CR",0,108
"SUBJ-0310","BENCHMARK-010","Active",1,"Y","Best Overall Response","BOR","PD",3,79
"SUBJ-0311","BENCHMARK-010","Active",1,"Y","Best Overall Response","BOR","PD",3,39
"SUBJ-0312","BENCHMARK-010","Active",1,"Y","Best Overall Response","BOR","PD",3,90
"SUBJ-0313","BENCHMARK-010","Active",1,"Y","Best Overall Response","BOR","PD",3,116
"SUBJ-0314","BENCHMARK-010","Active",1,"Y","Best Overall Response","BOR","SD",2,31
"SUBJ-0315","BENCHMARK-010","Active",1,"Y","Best Overall Response","BOR","PR",1,71
"SUBJ-0316","BENCHMARK-010","Active",1,"Y","Best Overall Response","BOR","PR",1,92
"SUBJ-0317","BENCHMARK-010","Active",1,"Y","Best Overall Response","BOR","PR",1,31
"SUBJ-0318","BENCHMARK-010","Active",1,"Y","Best Overall Response","BOR","PD",3,72
"SUBJ-0319","BENCHMARK-010","Active",1,"Y","Best Overall Response","BOR","PR",1,44
"SUBJ-0320","BENCHMARK-010","Active",1,"Y","Best Overall Response","BOR","NE",4,107
"SUBJ-0321","BENCHMARK-010","Active",1,"Y","Best Overall Response","BOR","PR",1,65
"SUBJ-0322","BENCHMARK-010","Active",1,"Y","Best Overall Response","BOR","SD",2,50
"SUBJ-0323","BENCHMARK-010","Active",1,"Y","Best Overall Response","BOR","SD",2,113
"SUBJ-0324","BENCHMARK-010","Active",1,"Y","Best Overall Response","BOR","PD",3,47
"SUBJ-0325","BENCHMARK-010","Active",1,"Y","Best Overall Response","BOR","PR",1,107
"SUBJ-0326","BENCHMARK-010","Active",1,"Y","Best Overall Response","BOR","SD",2,44
"SUBJ-0327","BENCHMARK-010","Active",1,"Y","Best Overall Response","BOR","SD",2,99
"SUBJ-0328","BENCHMARK-010","Active",1,"Y","Best Overall Response","BOR","CR",0,89
"SUBJ-0329","BENCHMARK-010","Active",1,"Y","Best Overall Response","BOR","NE",4,89
"SUBJ-0330","BENCHMARK-010","Active",1,"Y","Best Overall Response","BOR","SD",2,62
"SUBJ-0331","BENCHMARK-010","Active",1,"Y","Best Overall Response","BOR","PR",1,71
"SUBJ-0332","BENCHMARK-010","Active",1,"Y","Best Overall Response","BOR","NE",4,54
"SUBJ-0333","BENCHMARK-010","Active",1,"Y","Best Overall Response","BOR","PD",3,57
"SUBJ-0334","BENCHMARK-010","Active",1,"Y","Best Overall Response","BOR","SD",2,64
"SUBJ-0335","BENCHMARK-010","Active",1,"Y","Best Overall Response","BOR","PR",1,42
"SUBJ-0336","BENCHMARK-010","Active",1,"Y","Best Overall Response","BOR","SD",2,52
"SUBJ-0337","BENCHMARK-010","Active",1,"Y","Best Overall Response","BOR","PD",3,106
"SUBJ-0338","BENCHMARK-010","Active",1,"Y","Best Overall Response","BOR","PR",1,46
"SUBJ-0339","BENCHMARK-010","Active",1,"Y","Best Overall Response","BOR","PR",1,79
"SUBJ-0340","BENCHMARK-010","Active",1,"Y","Best Overall Response","BOR","PR",1,36
"SUBJ-0341","BENCHMARK-010","Active",1,"Y","Best Overall Response","BOR","PD",3,105
"SUBJ-0342","BENCHMARK-010","Active",1,"Y","Best Overall Response","BOR","NE",4,64
"SUBJ-0343","BENCHMARK-010","Active",1,"Y","Best Overall Response","BOR","PD",3,119
"SUBJ-0344","BENCHMARK-010","Active",1,"Y","Best Overall Response","BOR","SD",2,109
"SUBJ-0345","BENCHMARK-010","Active",1,"Y","Best Overall Response","BOR","PD",3,90
"SUBJ-0346","BENCHMARK-010","Active",1,"Y","Best Overall Response","BOR","SD",2,84
"SUBJ-0347","BENCHMARK-010","Active",1,"Y","Best Overall Response","BOR","SD",2,70
"SUBJ-0348","BENCHMARK-010","Active",1,"Y","Best Overall Response","BOR","SD",2,91
"SUBJ-0349","BENCHMARK-010","Active",1,"Y","Best Overall Response","BOR","SD",2,106
"SUBJ-0350","BENCHMARK-010","Active",1,"Y","Best Overall Response","BOR","PR",1,32
"SUBJ-0351","BENCHMARK-010","Active",1,"Y","Best Overall Response","BOR","PD",3,60
"SUBJ-0352","BENCHMARK-010","Active",1,"Y","Best Overall Response","BOR","PD",3,31
"SUBJ-0353","BENCHMARK-010","Active",1,"Y","Best Overall Response","BOR","SD",2,90
"SUBJ-0354","BENCHMARK-010","Active",1,"Y","Best Overall Response","BOR","SD",2,56
"SUBJ-0355","BENCHMARK-010","Active",1,"Y","Best Overall Response","BOR","PD",3,117
"SUBJ-0356","BENCHMARK-010","Active",1,"Y","Best Overall Response","BOR","PD",3,33
"SUBJ-0357","BENCHMARK-010","Active",1,"Y","Best Overall Response","BOR","PD",3,54
"SUBJ-0358","BENCHMARK-010","Active",1,"Y","Best Overall Response","BOR","PR",1,97
"SUBJ-0359","BENCHMARK-010","Active",1,"Y","Best Overall Response","BOR","PD",3,46
"SUBJ-0360","BENCHMARK-010","Active",1,"Y","Best Overall Response","BOR","PR",1,107
"SUBJ-0361","BENCHMARK-010","Active",1,"Y","Best Overall Response","BOR","PR",1,43
"SUBJ-0362","BENCHMARK-010","Active",1,"Y","Best Overall Response","BOR","PR",1,104
"SUBJ-0363","BENCHMARK-010","Active",1,"Y","Best Overall Response","BOR","PD",3,110
"SUBJ-0364","BENCHMARK-010","Active",1,"Y","Best Overall Response","BOR","SD",2,70
"SUBJ-0365","BENCHMARK-010","Active",1,"Y","Best Overall Response","BOR","PR",1,95
"SUBJ-0366","BENCHMARK-010","Active",1,"Y","Best Overall Response","BOR","PD",3,30
"SUBJ-0367","BENCHMARK-010","Active",1,"Y","Best Overall Response","BOR","PR",1,111
"SUBJ-0368","BENCHMARK-010","Active",1,"Y","Best Overall Response","BOR","PD",3,109
"SUBJ-0369","BENCHMARK-010","Active",1,"Y","Best Overall Response","BOR","PR",1,100
"SUBJ-0370","BENCHMARK-010","Active",1,"Y","Best Overall Response","BOR","SD",2,84
"SUBJ-0371","BENCHMARK-010","Active",1,"Y","Best Overall Response","BOR","PR",1,83
"SUBJ-0372","BENCHMARK-010","Active",1,"Y","Best Overall Response","BOR","PD",3,54
"SUBJ-0373","BENCHMARK-010","Active",1,"Y","Best Overall Response","BOR","PD",3,84
"SUBJ-0374","BENCHMARK-010","Active",1,"Y","Best Overall Response","BOR","SD",2,89
"SUBJ-0375","BENCHMARK-010","Active",1,"Y","Best Overall Response","BOR","PR",1,78
"SUBJ-0376","BENCHMARK-010","Active",1,"Y","Best Overall Response","BOR","PD",3,113
"SUBJ-0377","BENCHMARK-010","Active",1,"Y","Best Overall Response","BOR","SD",2,52
"SUBJ-0378","BENCHMARK-010","Active",1,"Y","Best Overall Response","BOR","SD",2,109
"SUBJ-0379","BENCHMARK-010","Active",1,"Y","Best Overall Response","BOR","PR",1,80
"SUBJ-0380","BENCHMARK-010","Active",1,"Y","Best Overall Response","BOR","SD",2,101
"SUBJ-0381","BENCHMARK-010","Active",1,"Y","Best Overall Response","BOR","SD",2,64
"SUBJ-0382","BENCHMARK-010","Active",1,"Y","Best Overall Response","BOR","CR",0,81
"SUBJ-0383","BENCHMARK-010","Active",1,"Y","Best Overall Response","BOR","PR",1,98
"SUBJ-0384","BENCHMARK-010","Active",1,"Y","Best Overall Response","BOR","PD",3,62
"SUBJ-0385","BENCHMARK-010","Active",1,"Y","Best Overall Response","BOR","PD",3,43
"SUBJ-0386","BENCHMARK-010","Active",1,"Y","Best Overall Response","BOR","NE",4,110
"SUBJ-0387","BENCHMARK-010","Active",1,"Y","Best Overall Response","BOR","SD",2,41
"SUBJ-0388","BENCHMARK-010","Active",1,"Y","Best Overall Response","BOR","PR",1,30
"SUBJ-0389","BENCHMARK-010","Active",1,"Y","Best Overall Response","BOR","PR",1,115
"SUBJ-0390","BENCHMARK-010","Active",1,"Y","Best Overall Response","BOR","SD",2,43
"SUBJ-0391","BENCHMARK-010","Active",1,"Y","Best Overall Response","BOR","SD",2,69
"SUBJ-0392","BENCHMARK-010","Active",1,"Y","Best Overall Response","BOR","SD",2,60
"SUBJ-0393","BENCHMARK-010","Active",1,"Y","Best Overall Response","BOR","SD",2,111
"SUBJ-0394","BENCHMARK-010","Active",1,"Y","Best Overall Response","BOR","PD",3,81
"SUBJ-0395","BENCHMARK-010","Active",1,"Y","Best Overall Response","BOR","PR",1,106
"SUBJ-0396","BENCHMARK-010","Active",1,"Y","Best Overall Response","BOR","PR",1,104
"SUBJ-0397","BENCHMARK-010","Active",1,"Y","Best Overall Response","BOR","SD",2,49
"SUBJ-0398","BENCHMARK-010","Active",1,"Y","Best Overall Response","BOR","PD",3,72
"SUBJ-0399","BENCHMARK-010","Active",1,"Y","Best Overall Response","BOR","PR",1,46
"SUBJ-0400","BENCHMARK-010","Active",1,"Y","Best Overall Response","BOR","PD",3,46
