"USUBJID","STUDYID","TRT01P","TRT01PN","SAFFL","ITTFL","SEX","AGE","AGEGR1","FOLLOWUP_DAYS","EXPOSURE_PY","DISCONTINUED","DIED"
"SUBJ-0001","BENCHMARK-009","Placebo",0,"Y","Y","Female",55,"<65",156,0.4271,1,0
"SUBJ-0002","BENCHMARK-009","Placebo",0,"Y","Y","Male",62,"<65",164,0.449,1,0
"SUBJ-0003","BENCHMARK-009","Placebo",0,"Y","Y","Female",65,">=65",458,1.2539,0,0
"SUBJ-0004","BENCHMARK-009","Placebo",0,"Y","Y","Female",66,">=65",482,1.3196,0,0
"SUBJ-0005","BENCHMARK-009","Placebo",0,"Y","Y","Female",71,">=65",461,1.2621,0,0
"SUBJ-0006","BENCHMARK-009","Placebo",0,"Y","Y","Female",71,">=65",415,1.1362,0,0
"SUBJ-0007","BENCHMARK-009","Placebo",0,"Y","Y","Female",38,"<65",561,1.5359,0,0
"SUBJ-0008","BENCHMARK-009","Placebo",0,"Y","Y","Female",79,">=65",416,1.1389,0,1
"SUBJ-0009","BENCHMARK-009","Placebo",0,"Y","Y","Male",67,">=65",607,1.6619,0,0
"SUBJ-0010","BENCHMARK-009","Placebo",0,"Y","Y","Male",56,"<65",419,1.1472,0,0
"SUBJ-0011","BENCHMARK-009","Placebo",0,"Y","Y","Male",51,"<65",542,1.4839,0,0
"SUBJ-0012","BENCHMARK-009","Placebo",0,"Y","Y","Male",71,">=65",295,0.8077,1,0
"SUBJ-0013","BENCHMARK-009","Placebo",0,"Y","Y","Female",65,">=65",300,0.8214,0,0
"SUBJ-0014","BENCHMARK-009","Placebo",0,"Y","Y","Female",73,">=65",400,1.0951,0,1
"SUBJ-0015","BENCHMARK-009","Placebo",0,"Y","Y","Male",61,"<65",413,1.1307,0,0
"SUBJ-0016","BENCHMARK-009","Placebo",0,"Y","Y","Female",60,"<65",482,1.3196,0,0
"SUBJ-0017","BENCHMARK-009","Placebo",0,"Y","Y","Male",84,">=65",133,0.3641,1,0
"SUBJ-0018","BENCHMARK-009","Placebo",0,"Y","Y","Female",42,"<65",186,0.5092,0,0
"SUBJ-0019","BENCHMARK-009","Placebo",0,"Y","Y","Female",66,">=65",205,0.5613,0,0
"SUBJ-0020","BENCHMARK-009","Placebo",0,"Y","Y","Female",66,">=65",544,1.4894,0,1
"SUBJ-0021","BENCHMARK-009","Placebo",0,"Y","Y","Male",66,">=65",397,1.0869,0,0
"SUBJ-0022","BENCHMARK-009","Placebo",0,"Y","Y","Male",68,">=65",265,0.7255,0,1
"SUBJ-0023","BENCHMARK-009","Placebo",0,"Y","Y","Male",59,"<65",410,1.1225,0,1
"SUBJ-0024","BENCHMARK-009","Placebo",0,"Y","Y","Male",74,">=65",534,1.462,0,0
"SUBJ-0025","BENCHMARK-009","Placebo",0,"Y","Y","Female",37,"<65",596,1.6318,0,0
"SUBJ-0026","BENCHMARK-009","Placebo",0,"Y","Y","Female",54,"<65",259,0.7091,1,0
"SUBJ-0027","BENCHMARK-009","Placebo",0,"Y","Y","Male",61,"<65",402,1.1006,0,0
"SUBJ-0028","BENCHMARK-009","Placebo",0,"Y","Y","Male",64,"<65",266,0.7283,0,0
"SUBJ-0029","BENCHMARK-009","Placebo",0,"Y","Y","Female",66,">=65",466,1.2758,0,0
"SUBJ-0030","BENCHMARK-009","Placebo",0,"Y","Y","Female",68,">=65",367,1.0048,0,0
"SUBJ-0031","BENCHMARK-009","Placebo",0,"Y","Y","Male",47,"<65",466,1.2758,0,0
"SUBJ-0032","BENCHMARK-009","Placebo",0,"Y","Y","Male",62,"<65",488,1.3361,0,0
"SUBJ-0033","BENCHMARK-009","Placebo",0,"Y","Y","Male",67,">=65",518,1.4182,0,0
"SUBJ-0034","BENCHMARK-009","Placebo",0,"Y","Y","Male",75,">=65",370,1.013,0,0
"SUBJ-0035","BENCHMARK-009","Placebo",0,"Y","Y","Male",61,"<65",470,1.2868,0,0
"SUBJ-0036","BENCHMARK-009","Placebo",0,"Y","Y","Male",78,">=65",270,0.7392,0,0
"SUBJ-0037","BENCHMARK-009","Placebo",0,"Y","Y","Male",59,"<65",354,0.9692,0,0
"SUBJ-0038","BENCHMARK-009","Placebo",0,"Y","Y","Male",62,"<65",348,0.9528,0,0
"SUBJ-0039","BENCHMARK-009","Placebo",0,"Y","Y","Male",64,"<65",200,0.5476,1,1
"SUBJ-0040","BENCHMARK-009","Placebo",0,"Y","Y","Male",57,"<65",428,1.1718,0,0
"SUBJ-0041","BENCHMARK-009","Placebo",0,"Y","Y","Female",69,">=65",444,1.2156,0,0
"SUBJ-0042","BENCHMARK-009","Placebo",0,"Y","Y","Male",49,"<65",393,1.076,0,0
"SUBJ-0043","BENCHMARK-009","Placebo",0,"Y","Y","Male",62,"<65",493,1.3498,0,0
"SUBJ-0044","BENCHMARK-009","Placebo",0,"Y","Y","Female",57,"<65",360,0.9856,0,0
"SUBJ-0045","BENCHMARK-009","Placebo",0,"Y","Y","Female",57,"<65",302,0.8268,0,0
"SUBJ-0046","BENCHMARK-009","Placebo",0,"Y","Y","Female",74,">=65",464,1.2704,0,0
"SUBJ-0047","BENCHMARK-009","Placebo",0,"Y","Y","Female",73,">=65",352,0.9637,0,0
"SUBJ-0048","BENCHMARK-009","Placebo",0,"Y","Y","Male",78,">=65",555,1.5195,0,1
"SUBJ-0049","BENCHMARK-009","Placebo",0,"Y","Y","Male",59,"<65",386,1.0568,0,0
"SUBJ-0050","BENCHMARK-009","Placebo",0,"Y","Y","Male",62,"<65",484,1.3251,0,0
"SUBJ-0051","BENCHMARK-009","Placebo",0,"Y","Y","Female",46,"<65",454,1.243,0,0
"SUBJ-0052","BENCHMARK-009","Placebo",0,"Y","Y","Female",58,"<65",354,0.9692,0,0
"SUBJ-0053","BENCHMARK-009","Placebo",0,"Y","Y","Male",80,">=65",567,1.5524,0,0
"SUBJ-0054","BENCHMARK-009","Placebo",0,"Y","Y","Female",58,"<65",483,1.3224,0,1
"SUBJ-0055","BENCHMARK-009","Placebo",0,"Y","Y","Female",50,"<65",433,1.1855,0,0
"SUBJ-0056","BENCHMARK-009","Placebo",0,"Y","Y","Female",62,"<65",450,1.232,0,0
"SUBJ-0057","BENCHMARK-009","Placebo",0,"Y","Y","Male",74,">=65",486,1.3306,0,0
"SUBJ-0058","BENCHMARK-009","Placebo",0,"Y","Y","Female",46,"<65",132,0.3614,1,0
"SUBJ-0059","BENCHMARK-009","Placebo",0,"Y","Y","Male",59,"<65",180,0.4928,0,0
"SUBJ-0060","BENCHMARK-009","Placebo",0,"Y","Y","Female",67,">=65",282,0.7721,1,1
"SUBJ-0061","BENCHMARK-009","Placebo",0,"Y","Y","Female",82,">=65",223,0.6105,1,0
"SUBJ-0062","BENCHMARK-009","Placebo",0,"Y","Y","Male",56,"<65",442,1.2101,0,1
"SUBJ-0063","BENCHMARK-009","Placebo",0,"Y","Y","Male",77,">=65",477,1.306,0,0
"SUBJ-0064","BENCHMARK-009","Placebo",0,"Y","Y","Female",58,"<65",551,1.5086,0,0
"SUBJ-0065","BENCHMARK-009","Placebo",0,"Y","Y","Female",52,"<65",360,0.9856,0,0
"SUBJ-0066","BENCHMARK-009","Placebo",0,"Y","Y","Female",51,"<65",542,1.4839,0,0
"SUBJ-0067","BENCHMARK-009","Placebo",0,"Y","Y","Male",60,"<65",455,1.2457,0,0
"SUBJ-0068","BENCHMARK-009","Placebo",0,"Y","Y","Male",62,"<65",518,1.4182,0,0
"SUBJ-0069","BENCHMARK-009","Placebo",0,"Y","Y","Male",59,"<65",508,1.3908,0,0
"SUBJ-0070","BENCHMARK-009","Placebo",0,"Y","Y","Female",73,">=65",490,1.3415,0,0
"SUBJ-0071","BENCHMARK-009","Placebo",0,"Y","Y","Male",64,"<65",331,0.9062,0,0
"SUBJ-0072","BENCHMARK-009","Placebo",0,"Y","Y","Female",61,"<65",417,1.1417,0,0
"SUBJ-0073","BENCHMARK-009","Placebo",0,"Y","Y","Female",56,"<65",481,1.3169,0,0
"SUBJ-0074","BENCHMARK-009","Placebo",0,"Y","Y","Female",49,"<65",339,0.9281,0,0
"SUBJ-0075","BENCHMARK-009","Placebo",0,"Y","Y","Male",42,"<65",376,1.0294,0,0
"SUBJ-0076","BENCHMARK-009","Placebo",0,"Y","Y","Male",64,"<65",477,1.306,0,0
"SUBJ-0077","BENCHMARK-009","Placebo",0,"Y","Y","Male",62,"<65",494,1.3525,0,0
"SUBJ-0078","BENCHMARK-009","Placebo",0,"Y","Y","Female",76,">=65",467,1.2786,0,0
"SUBJ-0079","BENCHMARK-009","Placebo",0,"Y","Y","Male",65,">=65",138,0.3778,1,0
"SUBJ-0080","BENCHMARK-009","Placebo",0,"Y","Y","Male",70,">=65",326,0.8925,0,1
"SUBJ-0081","BENCHMARK-009","Placebo",0,"Y","Y","Male",62,"<65",249,0.6817,1,0
"SUBJ-0082","BENCHMARK-009","Placebo",0,"Y","Y","Male",54,"<65",448,1.2266,0,0
"SUBJ-0083","BENCHMARK-009","Placebo",0,"Y","Y","Male",65,">=65",433,1.1855,0,0
"SUBJ-0084","BENCHMARK-009","Placebo",0,"Y","Y","Female",65,">=65",414,1.1335,0,0
"SUBJ-0085","BENCHMARK-009","Placebo",0,"Y","Y","Male",54,"<65",66,0.1807,1,0
"SUBJ-0086","BENCHMARK-009","Placebo",0,"Y","Y","Male",62,"<65",480,1.3142,0,0
"SUBJ-0087","BENCHMARK-009","Placebo",0,"Y","Y","Male",82,">=65",405,1.1088,0,0
"SUBJ-0088","BENCHMARK-009","Placebo",0,"Y","Y","Male",51,"<65",409,1.1198,0,0
"SUBJ-0089","BENCHMARK-009","Placebo",0,"Y","Y","Female",77,">=65",509,1.3936,0,0
"SUBJ-0090","BENCHMARK-009","Placebo",0,"Y","Y","Male",60,"<65",499,1.3662,0,0
"SUBJ-0091","BENCHMARK-009","Placebo",0,"Y","Y","Female",77,">=65",550,1.5058,0,0
"SUBJ-0092","BENCHMARK-009","Placebo",0,"Y","Y","Female",54,"<65",382,1.0459,0,0
"SUBJ-0093","BENCHMARK-009","Placebo",0,"Y","Y","Male",61,"<65",484,1.3251,0,0
"SUBJ-0094","BENCHMARK-009","Placebo",0,"Y","Y","Male",65,">=65",550,1.5058,0,0
"SUBJ-0095","BENCHMARK-009","Placebo",0,"Y","Y","Male",61,"<65",325,0.8898,0,0
"SUBJ-0096","BENCHMARK-009","Placebo",0,"Y","Y","Female",69,">=65",92,0.2519,1,0
"SUBJ-0097","BENCHMARK-009","Placebo",0,"Y","Y","Male",60,"<65",323,0.8843,0,0
"SUBJ-0098","BENCHMARK-009","Placebo",0,"Y","Y","Male",74,">=65",294,0.8049,0,0
"SUBJ-0099","BENCHMARK-009","Placebo",0,"Y","Y","Female",64,"<65",432,1.1828,0,0
"SUBJ-0100","BENCHMARK-009","Placebo",0,"Y","Y","Male",69,">=65",484,1.3251,0,0
"SUBJ-0101","BENCHMARK-009","Placebo",0,"Y","Y","Female",50,"<65",533,1.4593,0,0
"SUBJ-0102","BENCHMARK-009","Placebo",0,"Y","Y","Male",55,"<65",519,1.4209,0,0
"SUBJ-0103","BENCHMARK-009","Placebo",0,"Y","Y","Female",73,">=65",335,0.9172,0,0
"SUBJ-0104","BENCHMARK-009","Placebo",0,"Y","Y","Female",67,">=65",591,1.6181,0,0
"SUBJ-0105","BENCHMARK-009","Placebo",0,"Y","Y","Male",61,"<65",365,0.9993,0,0
"SUBJ-0106","BENCHMARK-009","Placebo",0,"Y","Y","Male",61,"<65",275,0.7529,1,0
"SUBJ-0107","BENCHMARK-009","Placebo",0,"Y","Y","Female",70,">=65",387,1.0595,0,0
"SUBJ-0108","BENCHMARK-009","Placebo",0,"Y","Y","Female",60,"<65",414,1.1335,0,0
"SUBJ-0109","BENCHMARK-009","Placebo",0,"Y","Y","Female",63,"<65",442,1.2101,0,0
"SUBJ-0110","BENCHMARK-009","Placebo",0,"Y","Y","Male",46,"<65",436,1.1937,0,0
"SUBJ-0111","BENCHMARK-009","Placebo",0,"Y","Y","Female",80,">=65",423,1.1581,0,0
"SUBJ-0112","BENCHMARK-009","Placebo",0,"Y","Y","Female",70,">=65",435,1.191,0,0
"SUBJ-0113","BENCHMARK-009","Placebo",0,"Y","Y","Female",70,">=65",125,0.3422,1,0
"SUBJ-0114","BENCHMARK-009","Placebo",0,"Y","Y","Female",43,"<65",138,0.3778,1,0
"SUBJ-0115","BENCHMARK-009","Placebo",0,"Y","Y","Female",62,"<65",276,0.7556,0,0
"SUBJ-0116","BENCHMARK-009","Placebo",0,"Y","Y","Female",58,"<65",391,1.0705,0,0
"SUBJ-0117","BENCHMARK-009","Placebo",0,"Y","Y","Male",48,"<65",84,0.23,1,0
"SUBJ-0118","BENCHMARK-009","Placebo",0,"Y","Y","Male",69,">=65",668,1.8289,0,0
"SUBJ-0119","BENCHMARK-009","Placebo",0,"Y","Y","Female",74,">=65",302,0.8268,0,0
"SUBJ-0120","BENCHMARK-009","Placebo",0,"Y","Y","Male",56,"<65",437,1.1964,0,0
"SUBJ-0121","BENCHMARK-009","Placebo",0,"Y","Y","Male",60,"<65",291,0.7967,0,0
"SUBJ-0122","BENCHMARK-009","Placebo",0,"Y","Y","Male",79,">=65",167,0.4572,1,0
"SUBJ-0123","BENCHMARK-009","Placebo",0,"Y","Y","Male",46,"<65",275,0.7529,1,0
"SUBJ-0124","BENCHMARK-009","Placebo",0,"Y","Y","Female",69,">=65",335,0.9172,0,0
"SUBJ-0125","BENCHMARK-009","Placebo",0,"Y","Y","Male",59,"<65",425,1.1636,0,0
"SUBJ-0126","BENCHMARK-009","Placebo",0,"Y","Y","Female",61,"<65",386,1.0568,0,0
"SUBJ-0127","BENCHMARK-009","Placebo",0,"Y","Y","Male",56,"<65",370,1.013,0,0
"SUBJ-0128","BENCHMARK-009","Placebo",0,"Y","Y","Male",73,">=65",243,0.6653,0,0
"SUBJ-0129","BENCHMARK-009","Placebo",0,"Y","Y","Male",51,"<65",315,0.8624,0,0
"SUBJ-0130","BENCHMARK-009","Placebo",0,"Y","Y","Male",72,">=65",441,1.2074,0,0
"SUBJ-0131","BENCHMARK-009","Placebo",0,"Y","Y","Male",76,">=65",476,1.3032,0,0
"SUBJ-0132","BENCHMARK-009","Placebo",0,"Y","Y","Male",46,"<65",113,0.3094,1,0
"SUBJ-0133","BENCHMARK-009","Placebo",0,"Y","Y","Male",51,"<65",266,0.7283,1,1
"SUBJ-0134","BENCHMARK-009","Placebo",0,"Y","Y","Female",68,">=65",283,0.7748,1,0
"SUBJ-0135","BENCHMARK-009","Placebo",0,"Y","Y","Male",52,"<65",555,1.5195,0,0
"SUBJ-0136","BENCHMARK-009","Placebo",0,"Y","Y","Female",55,"<65",326,0.8925,0,0
"SUBJ-0137","BENCHMARK-009","Placebo",0,"Y","Y","Female",58,"<65",414,1.1335,0,0
"SUBJ-0138","BENCHMARK-009","Placebo",0,"Y","Y","Female",59,"<65",533,1.4593,0,0
"SUBJ-0139","BENCHMARK-009","Placebo",0,"Y","Y","Male",69,">=65",383,1.0486,0,1
"SUBJ-0140","BENCHMARK-009","Placebo",0,"Y","Y","Male",56,"<65",420,1.1499,0,0
"SUBJ-0141","BENCHMARK-009","Placebo",0,"Y","Y","Female",63,"<65",417,1.1417,0,0
"SUBJ-0142","BENCHMARK-009","Placebo",0,"Y","Y","Female",69,">=65",345,0.9446,0,0
"SUBJ-0143","BENCHMARK-009","Placebo",0,"Y","Y","Female",47,"<65",385,1.0541,0,0
"SUBJ-0144","BENCHMARK-009","Placebo",0,"Y","Y","Male",55,"<65",422,1.1554,0,0
"SUBJ-0145","BENCHMARK-009","Placebo",0,"Y","Y","Male",71,">=65",388,1.0623,0,0
"SUBJ-0146","BENCHMARK-009","Placebo",0,"Y","Y","Female",58,"<65",525,1.4374,0,0
"SUBJ-0147","BENCHMARK-009","Placebo",0,"Y","Y","Female",37,"<65",382,1.0459,0,0
"SUBJ-0148","BENCHMARK-009","Placebo",0,"Y","Y","Female",53,"<65",386,1.0568,0,0
"SUBJ-0149","BENCHMARK-009","Placebo",0,"Y","Y","Female",70,">=65",488,1.3361,0,0
"SUBJ-0150","BENCHMARK-009","Placebo",0,"Y","Y","Male",58,"<65",330,0.9035,0,0
"SUBJ-0151","BENCHMARK-009","Placebo",0,"Y","Y","Female",58,"<65",421,1.1526,0,0
"SUBJ-0152","BENCHMARK-009","Placebo",0,"Y","Y","Female",61,"<65",285,0.7803,0,0
"SUBJ-0153","BENCHMARK-009","Placebo",0,"Y","Y","Male",69,">=65",530,1.4511,0,0
"SUBJ-0154","BENCHMARK-009","Placebo",0,"Y","Y","Male",57,"<65",400,1.0951,0,0
"SUBJ-0155","BENCHMARK-009","Placebo",0,"Y","Y","Male",67,">=65",383,1.0486,0,1
"SUBJ-0156","BENCHMARK-009","Placebo",0,"Y","Y","Female",68,">=65",314,0.8597,0,0
"SUBJ-0157","BENCHMARK-009","Placebo",0,"Y","Y","Male",52,"<65",424,1.1608,0,0
"SUBJ-0158","BENCHMARK-009","Placebo",0,"Y","Y","Male",61,"<65",353,0.9665,0,0
"SUBJ-0159","BENCHMARK-009","Placebo",0,"Y","Y","Male",57,"<65",377,1.0322,0,0
"SUBJ-0160","BENCHMARK-009","Placebo",0,"Y","Y","Female",66,">=65",541,1.4812,0,0
"SUBJ-0161","BENCHMARK-009","Placebo",0,"Y","Y","Female",47,"<65",409,1.1198,0,0
"SUBJ-0162","BENCHMARK-009","Placebo",0,"Y","Y","Female",77,">=65",329,0.9008,0,0
"SUBJ-0163","BENCHMARK-009","Placebo",0,"Y","Y","Male",75,">=65",440,1.2047,0,1
"SUBJ-0164","BENCHMARK-009","Placebo",0,"Y","Y","Female",54,"<65",392,1.0732,0,0
"SUBJ-0165","BENCHMARK-009","Placebo",0,"Y","Y","Male",55,"<65",478,1.3087,0,1
"SUBJ-0166","BENCHMARK-009","Placebo",0,"Y","Y","Male",53,"<65",165,0.4517,1,1
"SUBJ-0167","BENCHMARK-009","Placebo",0,"Y","Y","Male",61,"<65",336,0.9199,0,0
"SUBJ-0168","BENCHMARK-009","Placebo",0,"Y","Y","Female",57,"<65",466,1.2758,0,0
"SUBJ-0169","BENCHMARK-009","Placebo",0,"Y","Y","Female",63,"<65",433,1.1855,0,0
"SUBJ-0170","BENCHMARK-009","Placebo",0,"Y","Y","Male",43,"<65",506,1.3854,0,0
"SUBJ-0171","BENCHMARK-009","Placebo",0,"Y","Y","Male",64,"<65",404,1.1061,0,1
"SUBJ-0172","BENCHMARK-009","Placebo",0,"Y","Y","Male",62,"<65",500,1.3689,0,0
"SUBJ-0173","BENCHMARK-009","Placebo",0,"Y","Y","Male",46,"<65",268,0.7337,0,0
"SUBJ-0174","BENCHMARK-009","Placebo",0,"Y","Y","Female",65,">=65",577,1.5797,0,0
"SUBJ-0175","BENCHMARK-009","Placebo",0,"Y","Y","Male",63,"<65",503,1.3771,0,0
"SUBJ-0176","BENCHMARK-009","Placebo",0,"Y","Y","Male",60,"<65",411,1.1253,0,0
"SUBJ-0177","BENCHMARK-009","Placebo",0,"Y","Y","Male",62,"<65",295,0.8077,0,0
"SUBJ-0178","BENCHMARK-009","Placebo",0,"Y","Y","Male",66,">=65",483,1.3224,0,0
"SUBJ-0179","BENCHMARK-009","Placebo",0,"Y","Y","Female",65,">=65",468,1.2813,0,1
"SUBJ-0180","BENCHMARK-009","Placebo",0,"Y","Y","Male",58,"<65",424,1.1608,0,0
"SUBJ-0181","BENCHMARK-009","Placebo",0,"Y","Y","Male",74,">=65",439,1.2019,0,0
"SUBJ-0182","BENCHMARK-009","Placebo",0,"Y","Y","Female",62,"<65",372,1.0185,0,0
"SUBJ-0183","BENCHMARK-009","Placebo",0,"Y","Y","Male",61,"<65",458,1.2539,0,1
"SUBJ-0184","BENCHMARK-009","Placebo",0,"Y","Y","Female",71,">=65",452,1.2375,0,0
"SUBJ-0185","BENCHMARK-009","Placebo",0,"Y","Y","Male",72,">=65",400,1.0951,0,0
"SUBJ-0186","BENCHMARK-009","Placebo",0,"Y","Y","Female",55,"<65",305,0.835,0,0
"SUBJ-0187","BENCHMARK-009","Placebo",0,"Y","Y","Male",52,"<65",110,0.3012,1,0
"SUBJ-0188","BENCHMARK-009","Placebo",0,"Y","Y","Male",55,"<65",475,1.3005,0,0
"SUBJ-0189","BENCHMARK-009","Placebo",0,"Y","Y","Female",50,"<65",350,0.9582,0,0
"SUBJ-0190","BENCHMARK-009","Placebo",0,"Y","Y","Female",44,"<65",173,0.4736,1,0
"SUBJ-0191","BENCHMARK-009","Placebo",0,"Y","Y","Female",65,">=65",443,1.2129,0,0
"SUBJ-0192","BENCHMARK-009","Placebo",0,"Y","Y","Male",61,"<65",394,1.0787,0,0
"SUBJ-0193","BENCHMARK-009","Placebo",0,"Y","Y","Female",68,">=65",448,1.2266,0,0
"SUBJ-0194","BENCHMARK-009","Placebo",0,"Y","Y","Female",62,"<65",309,0.846,0,0
"SUBJ-0195","BENCHMARK-009","Placebo",0,"Y","Y","Female",66,">=65",339,0.9281,0,0
"SUBJ-0196","BENCHMARK-009","Placebo",0,"Y","Y","Male",57,"<65",523,1.4319,0,0
"SUBJ-0197","BENCHMARK-009","Placebo",0,"Y","Y","Male",52,"<65",461,1.2621,0,0
"SUBJ-0198","BENCHMARK-009","Placebo",0,"Y","Y","Male",70,">=65",478,1.3087,0,0
"SUBJ-0199","BENCHMARK-009","Placebo",0,"Y","Y","Female",70,">=65",588,1.6099,0,1
"SUBJ-0200","BENCHMARK-009","Placebo",0,"Y","Y","Male",45,"<65",437,1.1964,0,0
"SUBJ-0201","BENCHMARK-009","Active",1,"Y","Y","Male",71,">=65",208,0.5695,1,0
"SUBJ-0202","BENCHMARK-009","Active",1,"Y","Y","Female",44,"<65",455,1.2457,0,0
"SUBJ-0203","BENCHMARK-009","Active",1,"Y","Y","Male",62,"<65",530,1.4511,0,0
"SUBJ-0204","BENCHMARK-009","Active",1,"Y","Y","Male",58,"<65",610,1.6701,0,1
"SUBJ-0205","BENCHMARK-009","Active",1,"Y","Y","Male",61,"<65",301,0.8241,0,0
"SUBJ-0206","BENCHMARK-009","Active",1,"Y","Y","Female",73,">=65",321,0.8789,0,0
"SUBJ-0207","BENCHMARK-009","Active",1,"Y","Y","Male",49,"<65",361,0.9884,0,0
"SUBJ-0208","BENCHMARK-009","Active",1,"Y","Y","Male",59,"<65",330,0.9035,0,0
"SUBJ-0209","BENCHMARK-009","Active",1,"Y","Y","Female",85,">=65",367,1.0048,0,1
"SUBJ-0210","BENCHMARK-009","Active",1,"Y","Y","Male",47,"<65",408,1.117,0,0
"SUBJ-0211","BENCHMARK-009","Active",1,"Y","Y","Female",56,"<65",317,0.8679,0,0
"SUBJ-0212","BENCHMARK-009","Active",1,"Y","Y","Male",62,"<65",608,1.6646,0,0
"SUBJ-0213","BENCHMARK-009","Active",1,"Y","Y","Male",64,"<65",435,1.191,0,0
"SUBJ-0214","BENCHMARK-009","Active",1,"Y","Y","Female",57,"<65",417,1.1417,0,0
"SUBJ-0215","BENCHMARK-009","Active",1,"Y","Y","Male",59,"<65",470,1.2868,0,0
"SUBJ-0216","BENCHMARK-009","Active",1,"Y","Y","Male",73,">=65",170,0.4654,1,0
"SUBJ-0217","BENCHMARK-009","Active",1,"Y","Y","Female",60,"<65",413,1.1307,0,0
"SUBJ-0218","BENCHMARK-009","Active",1,"Y","Y","Male",65,">=65",558,1.5277,0,0
"SUBJ-0219","BENCHMARK-009","Active",1,"Y","Y","Female",66,">=65",405,1.1088,0,0
"SUBJ-0220","BENCHMARK-009","Active",1,"Y","Y","Female",66,">=65",309,0.846,0,0
"SUBJ-0221","BENCHMARK-009","Active",1,"Y","Y","Male",67,">=65",155,0.4244,1,0
"SUBJ-0222","BENCHMARK-009","Active",1,"Y","Y","Female",63,"<65",393,1.076,0,0
"SUBJ-0223","BENCHMARK-009","Active",1,"Y","Y","Female",55,"<65",378,1.0349,0,0
"SUBJ-0224","BENCHMARK-009","Active",1,"Y","Y","Male",61,"<65",329,0.9008,0,0
"SUBJ-0225","BENCHMARK-009","Active",1,"Y","Y","Female",52,"<65",464,1.2704,0,0
"SUBJ-0226","BENCHMARK-009","Active",1,"Y","Y","Male",63,"<65",409,1.1198,0,0
"SUBJ-0227","BENCHMARK-009","Active",1,"Y","Y","Female",59,"<65",471,1.2895,0,0
"SUBJ-0228","BENCHMARK-009","Active",1,"Y","Y","Male",61,"<65",404,1.1061,0,0
"SUBJ-0229","BENCHMARK-009","Active",1,"Y","Y","Female",51,"<65",245,0.6708,1,0
"SUBJ-0230","BENCHMARK-009","Active",1,"Y","Y","Male",59,"<65",269,0.7365,1,0
"SUBJ-0231","BENCHMARK-009","Active",1,"Y","Y","Male",51,"<65",135,0.3696,1,0
"SUBJ-0232","BENCHMARK-009","Active",1,"Y","Y","Female",58,"<65",510,1.3963,0,0
"SUBJ-0233","BENCHMARK-009","Active",1,"Y","Y","Female",67,">=65",317,0.8679,0,0
"SUBJ-0234","BENCHMARK-009","Active",1,"Y","Y","Female",64,"<65",383,1.0486,0,0
"SUBJ-0235","BENCHMARK-009","Active",1,"Y","Y","Male",71,">=65",401,1.0979,0,0
"SUBJ-0236","BENCHMARK-009","Active",1,"Y","Y","Female",67,">=65",390,1.0678,0,0
"SUBJ-0237","BENCHMARK-009","Active",1,"Y","Y","Female",63,"<65",125,0.3422,1,0
"SUBJ-0238","BENCHMARK-009","Active",1,"Y","Y","Female",72,">=65",423,1.1581,0,0
"SUBJ-0239","BENCHMARK-009","Active",1,"Y","Y","Female",74,">=65",447,1.2238,0,0
"SUBJ-0240","BENCHMARK-009","Active",1,"Y","Y","Female",48,"<65",340,0.9309,0,1
"SUBJ-0241","BENCHMARK-009","Active",1,"Y","Y","Male",71,">=65",211,0.5777,1,0
"SUBJ-0242","BENCHMARK-009","Active",1,"Y","Y","Male",70,">=65",515,1.41,0,0
"SUBJ-0243","BENCHMARK-009","Active",1,"Y","Y","Female",71,">=65",538,1.473,0,0
"SUBJ-0244","BENCHMARK-009","Active",1,"Y","Y","Male",53,"<65",537,1.4702,0,1
"SUBJ-0245","BENCHMARK-009","Active",1,"Y","Y","Female",85,">=65",301,0.8241,0,0
"SUBJ-0246","BENCHMARK-009","Active",1,"Y","Y","Male",36,"<65",609,1.6674,0,0
"SUBJ-0247","BENCHMARK-009","Active",1,"Y","Y","Male",62,"<65",517,1.4155,0,0
"SUBJ-0248","BENCHMARK-009","Active",1,"Y","Y","Male",63,"<65",271,0.742,1,0
"SUBJ-0249","BENCHMARK-009","Active",1,"Y","Y","Male",61,"<65",211,0.5777,1,0
"SUBJ-0250","BENCHMARK-009","Active",1,"Y","Y","Female",69,">=65",338,0.9254,0,0
"SUBJ-0251","BENCHMARK-009","Active",1,"Y","Y","Male",63,"<65",281,0.7693,1,0
"SUBJ-0252","BENCHMARK-009","Active",1,"Y","Y","Male",54,"<65",429,1.1745,0,0
"SUBJ-0253","BENCHMARK-009","Active",1,"Y","Y","Male",76,">=65",317,0.8679,0,0
"SUBJ-0254","BENCHMARK-009","Active",1,"Y","Y","Female",59,"<65",442,1.2101,0,1
"SUBJ-0255","BENCHMARK-009","Active",1,"Y","Y","Female",68,">=65",542,1.4839,0,0
"SUBJ-0256","BENCHMARK-009","Active",1,"Y","Y","Male",55,"<65",287,0.7858,1,0
"SUBJ-0257","BENCHMARK-009","Active",1,"Y","Y","Male",51,"<65",359,0.9829,0,0
"SUBJ-0258","BENCHMARK-009","Active",1,"Y","Y","Female",56,"<65",429,1.1745,0,0
"SUBJ-0259","BENCHMARK-009","Active",1,"Y","Y","Male",51,"<65",333,0.9117,0,0
"SUBJ-0260","BENCHMARK-009","Active",1,"Y","Y","Female",67,">=65",391,1.0705,0,0
"SUBJ-0261","BENCHMARK-009","Active",1,"Y","Y","Male",46,"<65",504,1.3799,0,0
"SUBJ-0262","BENCHMARK-009","Active",1,"Y","Y","Female",52,"<65",219,0.5996,1,0
"SUBJ-0263","BENCHMARK-009","Active",1,"Y","Y","Male",62,"<65",460,1.2594,0,0
"SUBJ-0264","BENCHMARK-009","Active",1,"Y","Y","Female",45,"<65",258,0.7064,0,0
"SUBJ-0265","BENCHMARK-009","Active",1,"Y","Y","Female",57,"<65",420,1.1499,0,0
"SUBJ-0266","BENCHMARK-009","Active",1,"Y","Y","Female",59,"<65",521,1.4264,0,0
"SUBJ-0267","BENCHMARK-009","Active",1,"Y","Y","Female",75,">=65",121,0.3313,1,0
"SUBJ-0268","BENCHMARK-009","Active",1,"Y","Y","Male",59,"<65",408,1.117,0,0
"SUBJ-0269","BENCHMARK-009","Active",1,"Y","Y","Male",57,"<65",182,0.4983,0,0
"SUBJ-0270","BENCHMARK-009","Active",1,"Y","Y","Female",55,"<65",430,1.1773,0,0
"SUBJ-0271","BENCHMARK-009","Active",1,"Y","Y","Male",66,">=65",477,1.306,0,0
"SUBJ-0272","BENCHMARK-009","Active",1,"Y","Y","Male",59,"<65",429,1.1745,0,0
"SUBJ-0273","BENCHMARK-009","Active",1,"Y","Y","Female",57,"<65",439,1.2019,0,0
"SUBJ-0274","BENCHMARK-009","Active",1,"Y","Y","Male",59,"<65",261,0.7146,1,0
"SUBJ-0275","BENCHMARK-009","Active",1,"Y","Y","Female",73,">=65",389,1.065,0,0
"SUBJ-0276","BENCHMARK-009","Active",1,"Y","Y","Female",78,">=65",543,1.4867,0,0
"SUBJ-0277","BENCHMARK-009","Active",1,"Y","Y","Female",56,"<65",260,0.7118,1,0
"SUBJ-0278","BENCHMARK-009","Active",1,"Y","Y","Female",62,"<65",313,0.8569,0,0
"SUBJ-0279","BENCHMARK-009","Active",1,"Y","Y","Female",59,"<65",549,1.5031,0,0
"SUBJ-0280","BENCHMARK-009","Active",1,"Y","Y","Female",81,">=65",533,1.4593,0,0
"SUBJ-0281","BENCHMARK-009","Active",1,"Y","Y","Male",68,">=65",499,1.3662,0,0
"SUBJ-0282","BENCHMARK-009","Active",1,"Y","Y","Female",44,"<65",275,0.7529,1,0
"SUBJ-0283","BENCHMARK-009","Active",1,"Y","Y","Female",58,"<65",374,1.024,0,0
"SUBJ-0284","BENCHMARK-009","Active",1,"Y","Y","Female",39,"<65",482,1.3196,0,0
"SUBJ-0285","BENCHMARK-009","Active",1,"Y","Y","Female",61,"<65",429,1.1745,0,0
"SUBJ-0286","BENCHMARK-009","Active",1,"Y","Y","Female",69,">=65",456,1.2485,0,0
"SUBJ-0287","BENCHMARK-009","Active",1,"Y","Y","Female",53,"<65",69,0.1889,1,0
"SUBJ-0288","BENCHMARK-009","Active",1,"Y","Y","Female",49,"<65",351,0.961,0,0
"SUBJ-0289","BENCHMARK-009","Active",1,"Y","Y","Male",75,">=65",235,0.6434,0,0
"SUBJ-0290","BENCHMARK-009","Active",1,"Y","Y","Female",52,"<65",450,1.232,0,0
"SUBJ-0291","BENCHMARK-009","Active",1,"Y","Y","Male",71,">=65",238,0.6516,1,0
"SUBJ-0292","BENCHMARK-009","Active",1,"Y","Y","Male",64,"<65",465,1.2731,0,0
"SUBJ-0293","BENCHMARK-009","Active",1,"Y","Y","Male",71,">=65",352,0.9637,0,0
"SUBJ-0294","BENCHMARK-009","Active",1,"Y","Y","Male",72,">=65",624,1.7084,0,0
"SUBJ-0295","BENCHMARK-009","Active",1,"Y","Y","Male",73,">=65",414,1.1335,0,0
"SUBJ-0296","BENCHMARK-009","Active",1,"Y","Y","Female",74,">=65",382,1.0459,0,0
"SUBJ-0297","BENCHMARK-009","Active",1,"Y","Y","Female",65,">=65",410,1.1225,0,0
"SUBJ-0298","BENCHMARK-009","Active",1,"Y","Y","Male",64,"<65",503,1.3771,0,0
"SUBJ-0299","BENCHMARK-009","Active",1,"Y","Y","Male",52,"<65",137,0.3751,1,0
"SUBJ-0300","BENCHMARK-009","Active",1,"Y","Y","Male",50,"<65",279,0.7639,0,0
"SUBJ-0301","BENCHMARK-009","Active",1,"Y","Y","Male",56,"<65",425,1.1636,0,0
"SUBJ-0302","BENCHMARK-009","Active",1,"Y","Y","Female",61,"<65",493,1.3498,0,0
"SUBJ-0303","BENCHMARK-009","Active",1,"Y","Y","Female",52,"<65",429,1.1745,0,1
"SUBJ-0304","BENCHMARK-009","Active",1,"Y","Y","Male",70,">=65",491,1.3443,0,0
"SUBJ-0305","BENCHMARK-009","Active",1,"Y","Y","Female",54,"<65",412,1.128,0,0
"SUBJ-0306","BENCHMARK-009","Active",1,"Y","Y","Female",65,">=65",420,1.1499,0,0
"SUBJ-0307","BENCHMARK-009","Active",1,"Y","Y","Female",71,">=65",468,1.2813,0,0
"SUBJ-0308","BENCHMARK-009","Active",1,"Y","Y","Female",50,"<65",514,1.4073,0,0
"SUBJ-0309","BENCHMARK-009","Active",1,"Y","Y","Female",72,">=65",313,0.8569,0,0
"SUBJ-0310","BENCHMARK-009","Active",1,"Y","Y","Female",41,"<65",161,0.4408,1,1
"SUBJ-0311","BENCHMARK-009","Active",1,"Y","Y","Female",64,"<65",419,1.1472,0,0
"SUBJ-0312","BENCHMARK-009","Active",1,"Y","Y","Female",77,">=65",357,0.9774,0,0
"SUBJ-0313","BENCHMARK-009","Active",1,"Y","Y","Female",68,">=65",219,0.5996,1,0
"SUBJ-0314","BENCHMARK-009","Active",1,"Y","Y","Female",71,">=65",368,1.0075,0,0
"SUBJ-0315","BENCHMARK-009","Active",1,"Y","Y","Female",56,"<65",478,1.3087,0,0
"SUBJ-0316","BENCHMARK-009","Active",1,"Y","Y","Male",65,">=65",388,1.0623,0,0
"SUBJ-0317","BENCHMARK-009","Active",1,"Y","Y","Male",73,">=65",354,0.9692,0,0
"SUBJ-0318","BENCHMARK-009","Active",1,"Y","Y","Male",49,"<65",440,1.2047,0,0
"SUBJ-0319","BENCHMARK-009","Active",1,"Y","Y","Male",72,">=65",314,0.8597,0,0
"SUBJ-0320","BENCHMARK-009","Active",1,"Y","Y","Female",48,"<65",289,0.7912,1,0
"SUBJ-0321","BENCHMARK-009","Active",1,"Y","Y","Female",57,"<65",381,1.0431,0,0
"SUBJ-0322","BENCHMARK-009","Active",1,"Y","Y","Female",85,">=65",157,0.4298,1,0
"SUBJ-0323","BENCHMARK-009","Active",1,"Y","Y","Male",67,">=65",430,1.1773,0,0
"SUBJ-0324","BENCHMARK-009","Active",1,"Y","Y","Female",61,"<65",425,1.1636,0,0
"SUBJ-0325","BENCHMARK-009","Active",1,"Y","Y","Male",72,">=65",172,0.4709,1,0
"SUBJ-0326","BENCHMARK-009","Active",1,"Y","Y","Female",60,"<65",351,0.961,0,0
"SUBJ-0327","BENCHMARK-009","Active",1,"Y","Y","Female",68,">=65",528,1.4456,0,0
"SUBJ-0328","BENCHMARK-009","Active",1,"Y","Y","Female",59,"<65",428,1.1718,0,1
"SUBJ-0329","BENCHMARK-009","Active",1,"Y","Y","Female",38,"<65",350,0.9582,0,0
"SUBJ-0330","BENCHMARK-009","Active",1,"Y","Y","Female",67,">=65",419,1.1472,0,0
"SUBJ-0331","BENCHMARK-009","Active",1,"Y","Y","Male",57,"<65",492,1.347,0,1
"SUBJ-0332","BENCHMARK-009","Active",1,"Y","Y","Male",56,"<65",387,1.0595,0,0
"SUBJ-0333","BENCHMARK-009","Active",1,"Y","Y","Male",62,"<65",356,0.9747,0,1
"SUBJ-0334","BENCHMARK-009","Active",1,"Y","Y","Male",75,">=65",439,1.2019,0,0
"SUBJ-0335","BENCHMARK-009","Active",1,"Y","Y","Male",65,">=65",514,1.4073,0,0
"SUBJ-0336","BENCHMARK-009","Active",1,"Y","Y","Male",70,">=65",418,1.1444,0,0
"SUBJ-0337","BENCHMARK-009","Active",1,"Y","Y","Male",68,">=65",300,0.8214,0,0
"SUBJ-0338","BENCHMARK-009","Active",1,"Y","Y","Male",63,"<65",307,0.8405,0,0
"SUBJ-0339","BENCHMARK-009","Active",1,"Y","Y","Female",69,">=65",356,0.9747,0,0
"SUBJ-0340","BENCHMARK-009","Active",1,"Y","Y","Male",61,"<65",378,1.0349,0,0
"SUBJ-0341","BENCHMARK-009","Active",1,"Y","Y","Female",50,"<65",423,1.1581,0,0
"SUBJ-0342","BENCHMARK-009","Active",1,"Y","Y","Female",65,">=65",244,0.668,1,0
"SUBJ-0343","BENCHMARK-009","Active",1,"Y","Y","Male",39,"<65",386,1.0568,0,0
"SUBJ-0344","BENCHMARK-009","Active",1,"Y","Y","Male",52,"<65",325,0.8898,0,0
"SUBJ-0345","BENCHMARK-009","Active",1,"Y","Y","Female",61,"<65",480,1.3142,0,0
"SUBJ-0346","BENCHMARK-009","Active",1,"Y","Y","Female",60,"<65",450,1.232,0,0
"SUBJ-0347","BENCHMARK-009","Active",1,"Y","Y","Male",58,"<65",529,1.4483,0,1
"SUBJ-0348","BENCHMARK-009","Active",1,"Y","Y","Female",72,">=65",274,0.7502,0,0
"SUBJ-0349","BENCHMARK-009","Active",1,"Y","Y","Male",51,"<65",433,1.1855,0,1
"SUBJ-0350","BENCHMARK-009","Active",1,"Y","Y","Male",36,"<65",547,1.4976,0,0
"SUBJ-0351","BENCHMARK-009","Active",1,"Y","Y","Female",70,">=65",150,0.4107,1,0
"SUBJ-0352","BENCHMARK-009","Active",1,"Y","Y","Female",62,"<65",350,0.9582,0,0
"SUBJ-0353","BENCHMARK-009","Active",1,"Y","Y","Female",61,"<65",197,0.5394,1,0
"SUBJ-0354","BENCHMARK-009","Active",1,"Y","Y","Male",58,"<65",347,0.95,0,0
"SUBJ-0355","BENCHMARK-009","Active",1,"Y","Y","Female",45,"<65",384,1.0513,0,0
"SUBJ-0356","BENCHMARK-009","Active",1,"Y","Y","Female",52,"<65",238,0.6516,1,0
"SUBJ-0357","BENCHMARK-009","Active",1,"Y","Y","Male",67,">=65",399,1.0924,0,0
"SUBJ-0358","BENCHMARK-009","Active",1,"Y","Y","Female",62,"<65",500,1.3689,0,0
"SUBJ-0359","BENCHMARK-009","Active",1,"Y","Y","Female",48,"<65",170,0.4654,1,0
"SUBJ-0360","BENCHMARK-009","Active",1,"Y","Y","Female",68,">=65",283,0.7748,0,0
"SUBJ-0361","BENCHMARK-009","Active",1,"Y","Y","Female",70,">=65",349,0.9555,0,0
"SUBJ-0362","BENCHMARK-009","Active",1,"Y","Y","Male",61,"<65",327,0.8953,0,0
"SUBJ-0363","BENCHMARK-009","Active",1,"Y","Y","Male",62,"<65",381,1.0431,0,0
"SUBJ-0364","BENCHMARK-009","Active",1,"Y","Y","Male",76,">=65",395,1.0815,0,0
"SUBJ-0365","BENCHMARK-009","Active",1,"Y","Y","Male",66,">=65",411,1.1253,0,0
"SUBJ-0366","BENCHMARK-009","Active",1,"Y","Y","Male",74,">=65",403,1.1034,0,0
"SUBJ-0367","BENCHMARK-009","Active",1,"Y","Y","Male",62,"<65",595,1.629,0,0
"SUBJ-0368","BENCHMARK-009","Active",1,"Y","Y","Male",77,">=65",300,0.8214,0,0
"SUBJ-0369","BENCHMARK-009","Active",1,"Y","Y","Male",61,"<65",388,1.0623,0,0
"SUBJ-0370","BENCHMARK-009","Active",1,"Y","Y","Female",71,">=65",456,1.2485,0,0
"SUBJ-0371","BENCHMARK-009","Active",1,"Y","Y","Male",59,"<65",572,1.5661,0,0
"SUBJ-0372","BENCHMARK-009","Active",1,"Y","Y","Male",51,"<65",433,1.1855,0,0
"SUBJ-0373","BENCHMARK-009","Active",1,"Y","Y","Male",72,">=65",121,0.3313,1,0
"SUBJ-0374","BENCHMARK-009","Active",1,"Y","Y","Male",85,">=65",89,0.2437,1,0
"SUBJ-0375","BENCHMARK-009","Active",1,"Y","Y","Male",59,"<65",555,1.5195,0,1
"SUBJ-0376","BENCHMARK-009","Active",1,"Y","Y","Male",77,">=65",363,0.9938,0,0
"SUBJ-0377","BENCHMARK-009","Active",1,"Y","Y","Male",60,"<65",400,1.0951,0,0
"SUBJ-0378","BENCHMARK-009","Active",1,"Y","Y","Male",71,">=65",95,0.2601,1,0
"SUBJ-0379","BENCHMARK-009","Active",1,"Y","Y","Male",52,"<65",437,1.1964,0,0
"SUBJ-0380","BENCHMARK-009","Active",1,"Y","Y","Male",65,">=65",77,0.2108,1,0
"SUBJ-0381","BENCHMARK-009","Active",1,"Y","Y","Female",54,"<65",643,1.7604,0,0
"SUBJ-0382","BENCHMARK-009","Active",1,"Y","Y","Female",48,"<65",328,0.898,0,0
"SUBJ-0383","BENCHMARK-009","Active",1,"Y","Y","Female",69,">=65",469,1.2841,0,0
"SUBJ-0384","BENCHMARK-009","Active",1,"Y","Y","Female",78,">=65",550,1.5058,0,0
"SUBJ-0385","BENCHMARK-009","Active",1,"Y","Y","Female",54,"<65",407,1.1143,0,0
"SUBJ-0386","BENCHMARK-009","Active",1,"Y","Y","Female",53,"<65",405,1.1088,0,0
"SUBJ-0387","BENCHMARK-009","Active",1,"Y","Y","Female",51,"<65",398,1.0897,0,0
"SUBJ-0388","BENCHMARK-009","Active",1,"Y","Y","Male",57,"<65",479,1.3114,0,0
"SUBJ-0389","BENCHMARK-009","Active",1,"Y","Y","Female",69,">=65",551,1.5086,0,0
"SUBJ-0390","BENCHMARK-009","Active",1,"Y","Y","Female",69,">=65",179,0.4901,1,0
"SUBJ-0391","BENCHMARK-009","Active",1,"Y","Y","Female",66,">=65",454,1.243,0,0
"SUBJ-0392","BENCHMARK-009","Active",1,"Y","Y","Male",70,">=65",398,1.0897,0,1
"SUBJ-0393","BENCHMARK-009","Active",1,"Y","Y","Male",57,"<65",470,1.2868,0,0
"SUBJ-0394","BENCHMARK-009","Active",1,"Y","Y","Female",60,"<65",376,1.0294,0,0
"SUBJ-0395","BENCHMARK-009","Active",1,"Y","Y","Male",69,">=65",87,0.2382,1,1
"SUBJ-0396","BENCHMARK-009","Active",1,"Y","Y","Female",59,"<65",524,1.4346,0,0
"SUBJ-0397","BENCHMARK-009","Active",1,"Y","Y","Female",52,"<65",465,1.2731,0,0
"SUBJ-0398","BENCHMARK-009","Active",1,"Y","Y","Female",48,"<65",447,1.2238,0,0
"SUBJ-0399","BENCHMARK-009","Active",1,"Y","Y","Female",85,">=65",96,0.2628,1,0
"SUBJ-0400","BENCHMARK-009","Active",1,"Y","Y","Female",45,"<65",509,1.3936,0,1
