"USUBJID","STUDYID","TRT01PN","TRT01P","AGE","AGEGR1","SEX","RACE","REGION1","ECOG","SAFFL","ITTFL"
"SUBJ-0001","BENCHMARK-001",0,"Placebo",72,">=65","M","Black","Asia",0,"Y","Y"
"SUBJ-0002","BENCHMARK-001",0,"Placebo",71,">=65","M","Black","North America",0,"Y","Y"
"SUBJ-0003","BENCHMARK-001",0,"Placebo",46,"<65","F","White","Asia",0,"Y","Y"
"SUBJ-0004","BENCHMARK-001",0,"Placebo",80,">=65","M","White","Europe",1,"Y","Y"
"SUBJ-0005","BENCHMARK-001",1,"Active",50,"<65","M","White","Europe",2,"Y","Y"
"SUBJ-0006","BENCHMARK-001",1,"Active",59,"<65","M","White","North America",2,"Y","Y"
"SUBJ-0007","BENCHMARK-001",1,"Active",53,"<65","F","White","Europe",0,"Y","Y"
"SUBJ-0008","BENCHMARK-001",1,"Active",57,"<65","M","White","Asia",0,"Y","N"
"SUBJ-0009","BENCHMARK-001",0,"Placebo",60,"<65","M","White","North America",1,"Y","Y"
"SUBJ-0010","BENCHMARK-001",1,"Active",59,"<65","M","White","Asia",0,"Y","Y"
"SUBJ-0011","BENCHMARK-001",0,"Placebo",58,"<65","M","White","Europe",2,"Y","Y"
"SUBJ-0012","BENCHMARK-001",1,"Active",59,"<65","M","Black","Europe",2,"Y","Y"
"SUBJ-0013","BENCHMARK-001",0,"Placebo",52,"<65","F","White","North America",1,"Y","Y"
"SUBJ-0014","BENCHMARK-001",1,"Active",52,"<65","M","Asian","North America",1,"Y","N"
"SUBJ-0015","BENCHMARK-001",0,"Placebo",38,"<65","F","Asian","North America",2,"Y","Y"
"SUBJ-0016","BENCHMARK-001",0,"Placebo",53,"<65","F","Asian","Asia",0,"Y","Y"
"SUBJ-0017","BENCHMARK-001",1,"Active",52,"<65","M","Black","North America",1,"Y","Y"
"SUBJ-0018","BENCHMARK-001",1,"Active",90,">=65","M","White","North America",0,"Y","Y"
"SUBJ-0019","BENCHMARK-001",1,"Active",42,"<65","M","White","Asia",1,"Y","Y"
"SUBJ-0020","BENCHMARK-001",1,"Active",60,"<65","M","White","North America",2,"Y","Y"
"SUBJ-0021","BENCHMARK-001",0,"Placebo",40,"<65","M","White","Rest of World",1,"Y","Y"
"SUBJ-0022","BENCHMARK-001",0,"Placebo",40,"<65","F","Asian","North America",0,"Y","N"
"SUBJ-0023","BENCHMARK-001",0,"Placebo",59,"<65","M","White","North America",0,"Y","N"
"SUBJ-0024","BENCHMARK-001",0,"Placebo",46,"<65","F","White","North America",1,"Y","Y"
"SUBJ-0025","BENCHMARK-001",0,"Placebo",58,"<65","M","White","North America",2,"Y","Y"
"SUBJ-0026","BENCHMARK-001",1,"Active",53,"<65","F","Other","Europe",2,"N","Y"
"SUBJ-0027","BENCHMARK-001",0,"Placebo",51,"<65","M","White","Europe",0,"Y","Y"
"SUBJ-0028","BENCHMARK-001",0,"Placebo",34,"<65","M","White","North America",1,"Y","Y"
"SUBJ-0029","BENCHMARK-001",0,"Placebo",43,"<65","F","White","Rest of World",2,"Y","Y"
"SUBJ-0030","BENCHMARK-001",0,"Placebo",60,"<65","M","White","Rest of World",0,"Y","Y"
"SUBJ-0031","BENCHMARK-001",1,"Active",65,">=65","M","White","Rest of World",0,"Y","Y"
"SUBJ-0032","BENCHMARK-001",1,"Active",52,"<65","M","White","North America",1,"Y","Y"
"SUBJ-0033","BENCHMARK-001",1,"Active",58,"<65","M","White","North America",1,"Y","Y"
"SUBJ-0034","BENCHMARK-001",1,"Active",71,">=65","M","White","North America",0,"Y","Y"
"SUBJ-0035","BENCHMARK-001",0,"Placebo",75,">=65","F","White","Europe",2,"Y","Y"
"SUBJ-0036","BENCHMARK-001",1,"Active",45,"<65","F","Asian","Europe",0,"Y","Y"
"SUBJ-0037","BENCHMARK-001",0,"Placebo",57,"<65","M","White","Rest of World",0,"Y","Y"
"SUBJ-0038","BENCHMARK-001",1,"Active",72,">=65","M","Asian","Europe",0,"Y","Y"
"SUBJ-0039","BENCHMARK-001",1,"Active",52,"<65","F","Black","Europe",0,"Y","N"
"SUBJ-0040","BENCHMARK-001",1,"Active",57,"<65","F","White","North America",1,"Y","Y"
"SUBJ-0041","BENCHMARK-001",0,"Placebo",57,"<65","M","Asian","Rest of World",2,"Y","Y"
"SUBJ-0042","BENCHMARK-001",0,"Placebo",47,"<65","M","Black","North America",0,"Y","Y"
"SUBJ-0043","BENCHMARK-001",1,"Active",53,"<65","F","White","Europe",0,"Y","Y"
"SUBJ-0044","BENCHMARK-001",1,"Active",58,"<65","F","White","Europe",2,"Y","Y"
"SUBJ-0045","BENCHMARK-001",1,"Active",53,"<65","M","White","Asia",1,"Y","Y"
"SUBJ-0046","BENCHMARK-001",1,"Active",71,">=65","F","White","North America",2,"Y","Y"
"SUBJ-0047","BENCHMARK-001",1,"Active",52,"<65","M","White","Europe",0,"Y","Y"
"SUBJ-0048","BENCHMARK-001",1,"Active",53,"<65","M","White","Asia",0,"Y","Y"
"SUBJ-0049","BENCHMARK-001",1,"Active",66,">=65","F","Black","Rest of World",1,"Y","Y"
"SUBJ-0050","BENCHMARK-001",0,"Placebo",45,"<65","F","White","North America",0,"Y","Y"
"SUBJ-0051","BENCHMARK-001",1,"Active",58,"<65","M","White","Asia",0,"Y","Y"
"SUBJ-0052","BENCHMARK-001",0,"Placebo",39,"<65","F","Asian","North America",0,"Y","Y"
"SUBJ-0053","BENCHMARK-001",1,"Active",72,">=65","F","White","North America",1,"Y","Y"
"SUBJ-0054","BENCHMARK-001",1,"Active",55,"<65","F","White","Asia",1,"Y","N"
"SUBJ-0055","BENCHMARK-001",1,"Active",52,"<65","M","Asian","North America",0,"Y","Y"
"SUBJ-0056","BENCHMARK-001",1,"Active",43,"<65","M","White","Asia",1,"Y","Y"
"SUBJ-0057","BENCHMARK-001",0,"Placebo",58,"<65","M","White","Europe",0,"Y","Y"
"SUBJ-0058","BENCHMARK-001",1,"Active",48,"<65","M","Black","Europe",1,"Y","Y"
"SUBJ-0059","BENCHMARK-001",0,"Placebo",52,"<65","M","White","North America",1,"Y","Y"
"SUBJ-0060","BENCHMARK-001",0,"Placebo",73,">=65","M","Black","North America",2,"Y","N"
"SUBJ-0061","BENCHMARK-001",0,"Placebo",56,"<65","F","Other","North America",0,"Y","Y"
"SUBJ-0062","BENCHMARK-001",1,"Active",45,"<65","F","Asian","Rest of World",0,"Y","N"
"SUBJ-0063","BENCHMARK-001",1,"Active",60,"<65","M","White","North America",0,"Y","Y"
"SUBJ-0064","BENCHMARK-001",1,"Active",54,"<65","F","White","North America",1,"Y","Y"
"SUBJ-0065","BENCHMARK-001",1,"Active",65,">=65","M","White","Europe",0,"Y","Y"
"SUBJ-0066","BENCHMARK-001",1,"Active",75,">=65","F","Black","Asia",0,"Y","Y"
"SUBJ-0067","BENCHMARK-001",1,"Active",46,"<65","F","White","Rest of World",2,"Y","Y"
"SUBJ-0068","BENCHMARK-001",0,"Placebo",63,"<65","M","White","North America",0,"Y","Y"
"SUBJ-0069","BENCHMARK-001",1,"Active",59,"<65","F","White","Europe",2,"Y","Y"
"SUBJ-0070","BENCHMARK-001",0,"Placebo",69,">=65","M","White","Europe",1,"Y","Y"
"SUBJ-0071","BENCHMARK-001",1,"Active",55,"<65","M","Black","Europe",1,"Y","Y"
"SUBJ-0072","BENCHMARK-001",0,"Placebo",68,">=65","F","Black","North America",0,"Y","Y"
"SUBJ-0073","BENCHMARK-001",1,"Active",37,"<65","M","White","Europe",1,"Y","Y"
"SUBJ-0074","BENCHMARK-001",1,"Active",78,">=65","M","Black","Rest of World",0,"Y","Y"
"SUBJ-0075","BENCHMARK-001",1,"Active",68,">=65","M","White","North America",0,"Y","Y"
"SUBJ-0076","BENCHMARK-001",1,"Active",56,"<65","M","Asian","Asia",0,"Y","Y"
"SUBJ-0077","BENCHMARK-001",0,"Placebo",41,"<65","M","White","Rest of World",1,"Y","Y"
"SUBJ-0078","BENCHMARK-001",0,"Placebo",66,">=65","M","White","North America",0,"Y","Y"
"SUBJ-0079","BENCHMARK-001",0,"Placebo",64,"<65","M","Black","North America",1,"Y","Y"
"SUBJ-0080","BENCHMARK-001",0,"Placebo",58,"<65","M","White","North America",1,"Y","Y"
"SUBJ-0081","BENCHMARK-001",1,"Active",60,"<65","M","Black","Europe",0,"Y","Y"
"SUBJ-0082","BENCHMARK-001",0,"Placebo",51,"<65","F","Asian","Rest of World",1,"N","Y"
"SUBJ-0083","BENCHMARK-001",1,"Active",62,"<65","F","Asian","Europe",1,"Y","Y"
"SUBJ-0084","BENCHMARK-001",0,"Placebo",62,"<65","F","Asian","Asia",1,"Y","Y"
"SUBJ-0085","BENCHMARK-001",0,"Placebo",55,"<65","M","Black","Asia",1,"Y","Y"
"SUBJ-0086","BENCHMARK-001",1,"Active",42,"<65","F","White","North America",0,"Y","Y"
"SUBJ-0087","BENCHMARK-001",1,"Active",66,">=65","M","White","Rest of World",0,"Y","Y"
"SUBJ-0088","BENCHMARK-001",0,"Placebo",65,">=65","M","White","Europe",0,"Y","Y"
"SUBJ-0089","BENCHMARK-001",0,"Placebo",48,"<65","F","Black","Asia",1,"Y","Y"
"SUBJ-0090","BENCHMARK-001",0,"Placebo",39,"<65","M","Black","North America",0,"Y","Y"
"SUBJ-0091","BENCHMARK-001",0,"Placebo",60,"<65","F","White","Rest of World",1,"Y","Y"
"SUBJ-0092","BENCHMARK-001",1,"Active",54,"<65","M","White","North America",1,"Y","Y"
"SUBJ-0093","BENCHMARK-001",0,"Placebo",61,"<65","F","Asian","Asia",1,"Y","Y"
"SUBJ-0094","BENCHMARK-001",1,"Active",42,"<65","F","White","Europe",0,"Y","Y"
"SUBJ-0095","BENCHMARK-001",1,"Active",46,"<65","M","White","North America",0,"Y","Y"
"SUBJ-0096","BENCHMARK-001",1,"Active",71,">=65","F","Black","Europe",1,"Y","Y"
"SUBJ-0097","BENCHMARK-001",0,"Placebo",63,"<65","M","White","Europe",0,"Y","Y"
"SUBJ-0098","BENCHMARK-001",1,"Active",65,">=65","F","White","North America",1,"Y","Y"
"SUBJ-0099","BENCHMARK-001",1,"Active",80,">=65","F","Asian","Rest of World",0,"Y","Y"
"SUBJ-0100","BENCHMARK-001",1,"Active",60,"<65","M","Asian","Europe",1,"Y","Y"
"SUBJ-0101","BENCHMARK-001",1,"Active",34,"<65","F","White","North America",2,"Y","Y"
"SUBJ-0102","BENCHMARK-001",1,"Active",62,"<65","M","White","Asia",2,"Y","Y"
"SUBJ-0103","BENCHMARK-001",0,"Placebo",72,">=65","M","White","Europe",0,"Y","Y"
"SUBJ-0104","BENCHMARK-001",1,"Active",83,">=65","F","White","North America",1,"Y","Y"
"SUBJ-0105","BENCHMARK-001",0,"Placebo",41,"<65","F","White","Europe",1,"Y","Y"
"SUBJ-0106","BENCHMARK-001",1,"Active",44,"<65","F","Black","Europe",2,"Y","Y"
"SUBJ-0107","BENCHMARK-001",1,"Active",50,"<65","M","White","Asia",0,"Y","Y"
"SUBJ-0108","BENCHMARK-001",0,"Placebo",45,"<65","M","White","Europe",2,"Y","Y"
"SUBJ-0109","BENCHMARK-001",1,"Active",50,"<65","M","White","Asia",2,"Y","Y"
"SUBJ-0110","BENCHMARK-001",0,"Placebo",56,"<65","F","White","Rest of World",0,"Y","Y"
"SUBJ-0111","BENCHMARK-001",1,"Active",44,"<65","F","White","Europe",1,"Y","Y"
"SUBJ-0112","BENCHMARK-001",0,"Placebo",82,">=65","F","White","Europe",0,"Y","Y"
"SUBJ-0113","BENCHMARK-001",1,"Active",59,"<65","M","Black","Rest of World",1,"Y","Y"
"SUBJ-0114","BENCHMARK-001",0,"Placebo",57,"<65","F","Black","Asia",1,"Y","Y"
"SUBJ-0115","BENCHMARK-001",1,"Active",64,"<65","F","Asian","North America",1,"Y","Y"
"SUBJ-0116","BENCHMARK-001",1,"Active",58,"<65","F","Asian","North America",1,"Y","Y"
"SUBJ-0117","BENCHMARK-001",0,"Placebo",56,"<65","M","Other","Asia",1,"Y","Y"
"SUBJ-0118","BENCHMARK-001",0,"Placebo",76,">=65","M","White","Asia",0,"Y","Y"
"SUBJ-0119","BENCHMARK-001",0,"Placebo",55,"<65","M","White","North America",0,"Y","Y"
"SUBJ-0120","BENCHMARK-001",1,"Active",43,"<65","F","White","Rest of World",0,"Y","Y"
"SUBJ-0121","BENCHMARK-001",0,"Placebo",63,"<65","M","Asian","Asia",1,"Y","Y"
"SUBJ-0122","BENCHMARK-001",1,"Active",54,"<65","F","Other","Rest of World",0,"Y","Y"
"SUBJ-0123","BENCHMARK-001",1,"Active",52,"<65","M","Other","Europe",2,"Y","Y"
"SUBJ-0124","BENCHMARK-001",1,"Active",45,"<65","M","White","North America",2,"Y","Y"
"SUBJ-0125","BENCHMARK-001",1,"Active",63,"<65","M","Asian","Asia",0,"Y","Y"
"SUBJ-0126","BENCHMARK-001",0,"Placebo",56,"<65","F","Black","Asia",0,"Y","Y"
"SUBJ-0127","BENCHMARK-001",0,"Placebo",64,"<65","M","White","Europe",0,"Y","Y"
"SUBJ-0128","BENCHMARK-001",1,"Active",55,"<65","M","White","Asia",2,"Y","Y"
"SUBJ-0129","BENCHMARK-001",0,"Placebo",50,"<65","M","White","North America",2,"Y","Y"
"SUBJ-0130","BENCHMARK-001",0,"Placebo",73,">=65","F","White","Europe",0,"Y","Y"
"SUBJ-0131","BENCHMARK-001",0,"Placebo",55,"<65","M","White","North America",0,"Y","Y"
"SUBJ-0132","BENCHMARK-001",1,"Active",69,">=65","F","Other","Asia",1,"Y","Y"
"SUBJ-0133","BENCHMARK-001",0,"Placebo",44,"<65","F","Black","Asia",2,"Y","Y"
"SUBJ-0134","BENCHMARK-001",0,"Placebo",52,"<65","F","Black","North America",2,"Y","Y"
"SUBJ-0135","BENCHMARK-001",1,"Active",55,"<65","M","Asian","Europe",0,"Y","Y"
"SUBJ-0136","BENCHMARK-001",1,"Active",53,"<65","M","White","Europe",0,"Y","Y"
"SUBJ-0137","BENCHMARK-001",1,"Active",74,">=65","M","White","North America",1,"Y","Y"
"SUBJ-0138","BENCHMARK-001",0,"Placebo",58,"<65","F","White","North America",1,"Y","Y"
"SUBJ-0139","BENCHMARK-001",0,"Placebo",61,"<65","F","White","Europe",0,"Y","Y"
"SUBJ-0140","BENCHMARK-001",1,"Active",47,"<65","F","Asian","Europe",0,"Y","Y"
"SUBJ-0141","BENCHMARK-001",0,"Placebo",49,"<65","F","White","North America",0,"Y","Y"
"SUBJ-0142","BENCHMARK-001",0,"Placebo",70,">=65","F","White","Rest of World",1,"Y","Y"
"SUBJ-0143","BENCHMARK-001",1,"Active",73,">=65","M","White","Europe",0,"Y","Y"
"SUBJ-0144","BENCHMARK-001",0,"Placebo",73,">=65","F","White","Asia",0,"Y","Y"
"SUBJ-0145","BENCHMARK-001",0,"Placebo",41,"<65","F","Asian","North America",0,"Y","Y"
"SUBJ-0146","BENCHMARK-001",0,"Placebo",83,">=65","M","White","North America",2,"Y","Y"
"SUBJ-0147","BENCHMARK-001",1,"Active",70,">=65","M","White","North America",1,"Y","Y"
"SUBJ-0148","BENCHMARK-001",1,"Active",58,"<65","F","Asian","North America",1,"Y","Y"
"SUBJ-0149","BENCHMARK-001",0,"Placebo",66,">=65","F","White","Europe",0,"Y","Y"
"SUBJ-0150","BENCHMARK-001",1,"Active",46,"<65","M","White","North America",0,"Y","Y"
"SUBJ-0151","BENCHMARK-001",1,"Active",45,"<65","M","White","Rest of World",1,"Y","Y"
"SUBJ-0152","BENCHMARK-001",1,"Active",59,"<65","M","White","North America",0,"Y","Y"
"SUBJ-0153","BENCHMARK-001",0,"Placebo",44,"<65","M","White","Rest of World",1,"Y","Y"
"SUBJ-0154","BENCHMARK-001",0,"Placebo",60,"<65","M","Asian","Asia",1,"Y","Y"
"SUBJ-0155","BENCHMARK-001",0,"Placebo",74,">=65","M","White","Europe",0,"Y","Y"
"SUBJ-0156","BENCHMARK-001",0,"Placebo",46,"<65","M","Asian","Rest of World",1,"Y","Y"
"SUBJ-0157","BENCHMARK-001",0,"Placebo",49,"<65","F","Asian","Europe",1,"Y","Y"
"SUBJ-0158","BENCHMARK-001",0,"Placebo",59,"<65","M","Black","Europe",0,"Y","Y"
"SUBJ-0159","BENCHMARK-001",0,"Placebo",46,"<65","F","Asian","Asia",0,"Y","Y"
"SUBJ-0160","BENCHMARK-001",1,"Active",53,"<65","F","Asian","North America",1,"Y","Y"
"SUBJ-0161","BENCHMARK-001",0,"Placebo",68,">=65","F","White","Europe",0,"Y","Y"
"SUBJ-0162","BENCHMARK-001",1,"Active",70,">=65","F","Asian","Europe",2,"N","Y"
"SUBJ-0163","BENCHMARK-001",1,"Active",63,"<65","M","White","North America",1,"Y","N"
"SUBJ-0164","BENCHMARK-001",0,"Placebo",36,"<65","M","Black","Europe",0,"Y","Y"
"SUBJ-0165","BENCHMARK-001",1,"Active",57,"<65","F","White","North America",2,"Y","N"
"SUBJ-0166","BENCHMARK-001",1,"Active",71,">=65","F","Black","North America",0,"Y","Y"
"SUBJ-0167","BENCHMARK-001",0,"Placebo",68,">=65","F","White","North America",1,"Y","Y"
"SUBJ-0168","BENCHMARK-001",0,"Placebo",56,"<65","M","White","Europe",1,"N","Y"
"SUBJ-0169","BENCHMARK-001",1,"Active",26,"<65","M","Asian","Asia",2,"Y","Y"
"SUBJ-0170","BENCHMARK-001",0,"Placebo",59,"<65","M","White","Europe",1,"Y","Y"
"SUBJ-0171","BENCHMARK-001",1,"Active",65,">=65","M","White","North America",1,"Y","N"
"SUBJ-0172","BENCHMARK-001",0,"Placebo",59,"<65","M","White","Asia",0,"Y","Y"
"SUBJ-0173","BENCHMARK-001",1,"Active",60,"<65","M","Asian","Rest of World",1,"Y","Y"
"SUBJ-0174","BENCHMARK-001",1,"Active",63,"<65","M","White","Rest of World",0,"Y","Y"
"SUBJ-0175","BENCHMARK-001",0,"Placebo",53,"<65","F","White","North America",0,"Y","Y"
"SUBJ-0176","BENCHMARK-001",1,"Active",74,">=65","M","White","North America",1,"Y","Y"
"SUBJ-0177","BENCHMARK-001",0,"Placebo",64,"<65","F","White","Europe",1,"Y","Y"
"SUBJ-0178","BENCHMARK-001",1,"Active",43,"<65","F","White","Rest of World",1,"Y","Y"
"SUBJ-0179","BENCHMARK-001",1,"Active",75,">=65","F","Asian","Europe",1,"Y","Y"
"SUBJ-0180","BENCHMARK-001",1,"Active",72,">=65","F","White","Rest of World",2,"Y","Y"
"SUBJ-0181","BENCHMARK-001",1,"Active",68,">=65","F","White","Europe",1,"Y","Y"
"SUBJ-0182","BENCHMARK-001",1,"Active",38,"<65","F","White","North America",2,"Y","Y"
"SUBJ-0183","BENCHMARK-001",1,"Active",51,"<65","M","White","Europe",1,"Y","Y"
"SUBJ-0184","BENCHMARK-001",0,"Placebo",66,">=65","M","Asian","North America",1,"Y","Y"
"SUBJ-0185","BENCHMARK-001",1,"Active",59,"<65","F","White","Asia",0,"Y","Y"
"SUBJ-0186","BENCHMARK-001",1,"Active",62,"<65","M","White","Asia",1,"Y","Y"
"SUBJ-0187","BENCHMARK-001",1,"Active",88,">=65","M","Black","Europe",1,"Y","Y"
"SUBJ-0188","BENCHMARK-001",0,"Placebo",48,"<65","F","White","Europe",0,"Y","Y"
"SUBJ-0189","BENCHMARK-001",1,"Active",33,"<65","M","White","Europe",1,"Y","Y"
"SUBJ-0190","BENCHMARK-001",1,"Active",61,"<65","M","Black","Rest of World",0,"Y","Y"
"SUBJ-0191","BENCHMARK-001",0,"Placebo",50,"<65","F","Asian","Europe",1,"Y","Y"
"SUBJ-0192","BENCHMARK-001",1,"Active",63,"<65","M","White","Asia",2,"Y","Y"
"SUBJ-0193","BENCHMARK-001",1,"Active",48,"<65","F","Black","North America",1,"Y","Y"
"SUBJ-0194","BENCHMARK-001",1,"Active",85,">=65","M","Black","North America",0,"Y","Y"
"SUBJ-0195","BENCHMARK-001",1,"Active",57,"<65","F","White","Rest of World",1,"Y","Y"
"SUBJ-0196","BENCHMARK-001",1,"Active",52,"<65","M","White","Asia",0,"Y","Y"
"SUBJ-0197","BENCHMARK-001",0,"Placebo",56,"<65","M","White","North America",1,"Y","Y"
"SUBJ-0198","BENCHMARK-001",0,"Placebo",68,">=65","M","White","North America",1,"Y","Y"
"SUBJ-0199","BENCHMARK-001",1,"Active",59,"<65","F","White","Asia",0,"Y","N"
"SUBJ-0200","BENCHMARK-001",1,"Active",38,"<65","M","White","Europe",0,"Y","Y"
