"USUBJID","STUDYID","TRT01PN","TRT01P","AVAL","CNSR","PARAMCD","PARAM","ITTFL","SAFFL","SEX","ECOG"
"SUBJ-0001","BENCHMARK-001",0,"Placebo",3.1,0,"PFS","Progression-Free Survival","Y","Y","Female",1
"SUBJ-0002","BENCHMARK-001",0,"Placebo",6.95,0,"PFS","Progression-Free Survival","Y","Y","Female",0
"SUBJ-0003","BENCHMARK-001",0,"Placebo",1.51,0,"PFS","Progression-Free Survival","Y","Y","Male",1
"SUBJ-0004","BENCHMARK-001",0,"Placebo",0.73,0,"PFS","Progression-Free Survival","Y","Y","Female",0
"SUBJ-0005","BENCHMARK-001",1,"Active",3.46,0,"PFS","Progression-Free Survival","Y","Y","Female",0
"SUBJ-0006","BENCHMARK-001",1,"Active",11.99,0,"PFS","Progression-Free Survival","Y","Y","Male",0
"SUBJ-0007","BENCHMARK-001",1,"Active",16.79,1,"PFS","Progression-Free Survival","Y","Y","Female",0
"SUBJ-0008","BENCHMARK-001",1,"Active",12.77,0,"PFS","Progression-Free Survival","Y","Y","Female",0
"SUBJ-0009","BENCHMARK-001",0,"Placebo",0.82,0,"PFS","Progression-Free Survival","Y","Y","Male",1
"SUBJ-0010","BENCHMARK-001",1,"Active",1.37,0,"PFS","Progression-Free Survival","Y","Y","Male",0
"SUBJ-0011","BENCHMARK-001",0,"Placebo",0.7,1,"PFS","Progression-Free Survival","Y","Y","Female",0
"SUBJ-0012","BENCHMARK-001",1,"Active",2.51,0,"PFS","Progression-Free Survival","N","Y","Female",1
"SUBJ-0013","BENCHMARK-001",0,"Placebo",5.5,1,"PFS","Progression-Free Survival","Y","Y","Female",1
"SUBJ-0014","BENCHMARK-001",1,"Active",21.58,0,"PFS","Progression-Free Survival","Y","Y","Female",0
"SUBJ-0015","BENCHMARK-001",0,"Placebo",0.01,1,"PFS","Progression-Free Survival","Y","Y","Male",0
"SUBJ-0016","BENCHMARK-001",0,"Placebo",12.95,0,"PFS","Progression-Free Survival","Y","Y","Male",1
"SUBJ-0017","BENCHMARK-001",1,"Active",41.42,0,"PFS","Progression-Free Survival","Y","Y","Female",1
"SUBJ-0018","BENCHMARK-001",1,"Active",0.69,0,"PFS","Progression-Free Survival","Y","Y","Female",0
"SUBJ-0019","BENCHMARK-001",1,"Active",15.91,0,"PFS","Progression-Free Survival","Y","Y","Male",1
"SUBJ-0020","BENCHMARK-001",1,"Active",24.95,0,"PFS","Progression-Free Survival","Y","Y","Female",1
"SUBJ-0021","BENCHMARK-001",0,"Placebo",1.06,0,"PFS","Progression-Free Survival","Y","Y","Female",1
"SUBJ-0022","BENCHMARK-001",0,"Placebo",13.48,1,"PFS","Progression-Free Survival","Y","Y","Female",0
"SUBJ-0023","BENCHMARK-001",0,"Placebo",17.98,0,"PFS","Progression-Free Survival","Y","Y","Male",1
"SUBJ-0024","BENCHMARK-001",0,"Placebo",0.86,0,"PFS","Progression-Free Survival","Y","Y","Male",1
"SUBJ-0025","BENCHMARK-001",0,"Placebo",6.9,0,"PFS","Progression-Free Survival","Y","Y","Male",0
"SUBJ-0026","BENCHMARK-001",1,"Active",9.51,0,"PFS","Progression-Free Survival","Y","Y","Male",0
"SUBJ-0027","BENCHMARK-001",0,"Placebo",0.53,0,"PFS","Progression-Free Survival","Y","Y","Male",1
"SUBJ-0028","BENCHMARK-001",0,"Placebo",0.63,1,"PFS","Progression-Free Survival","Y","Y","Male",1
"SUBJ-0029","BENCHMARK-001",0,"Placebo",5.17,0,"PFS","Progression-Free Survival","Y","Y","Female",0
"SUBJ-0030","BENCHMARK-001",0,"Placebo",20.68,1,"PFS","Progression-Free Survival","Y","Y","Female",1
"SUBJ-0031","BENCHMARK-001",1,"Active",1,1,"PFS","Progression-Free Survival","Y","Y","Male",1
"SUBJ-0032","BENCHMARK-001",1,"Active",4.96,0,"PFS","Progression-Free Survival","Y","Y","Male",1
"SUBJ-0033","BENCHMARK-001",1,"Active",22.22,1,"PFS","Progression-Free Survival","Y","Y","Male",0
"SUBJ-0034","BENCHMARK-001",1,"Active",13.72,1,"PFS","Progression-Free Survival","Y","Y","Female",0
"SUBJ-0035","BENCHMARK-001",0,"Placebo",1.23,0,"PFS","Progression-Free Survival","Y","Y","Male",1
"SUBJ-0036","BENCHMARK-001",1,"Active",1.09,0,"PFS","Progression-Free Survival","Y","Y","Male",1
"SUBJ-0037","BENCHMARK-001",0,"Placebo",6.81,0,"PFS","Progression-Free Survival","Y","Y","Female",0
"SUBJ-0038","BENCHMARK-001",1,"Active",7.98,1,"PFS","Progression-Free Survival","Y","Y","Female",1
"SUBJ-0039","BENCHMARK-001",1,"Active",11.2,0,"PFS","Progression-Free Survival","Y","Y","Female",0
"SUBJ-0040","BENCHMARK-001",1,"Active",15.1,0,"PFS","Progression-Free Survival","Y","Y","Female",0
"SUBJ-0041","BENCHMARK-001",0,"Placebo",8.21,0,"PFS","Progression-Free Survival","Y","Y","Female",0
"SUBJ-0042","BENCHMARK-001",0,"Placebo",29.16,0,"PFS","Progression-Free Survival","Y","Y","Male",1
"SUBJ-0043","BENCHMARK-001",1,"Active",2.62,1,"PFS","Progression-Free Survival","Y","Y","Male",1
"SUBJ-0044","BENCHMARK-001",1,"Active",1.37,0,"PFS","Progression-Free Survival","Y","Y","Male",0
"SUBJ-0045","BENCHMARK-001",1,"Active",42.26,0,"PFS","Progression-Free Survival","Y","Y","Male",0
"SUBJ-0046","BENCHMARK-001",1,"Active",8.67,1,"PFS","Progression-Free Survival","Y","Y","Female",0
"SUBJ-0047","BENCHMARK-001",1,"Active",19.17,1,"PFS","Progression-Free Survival","Y","Y","Female",0
"SUBJ-0048","BENCHMARK-001",1,"Active",11.01,0,"PFS","Progression-Free Survival","Y","Y","Female",0
"SUBJ-0049","BENCHMARK-001",1,"Active",0.82,1,"PFS","Progression-Free Survival","Y","Y","Female",0
"SUBJ-0050","BENCHMARK-001",0,"Placebo",7.84,1,"PFS","Progression-Free Survival","Y","Y","Male",0
"SUBJ-0051","BENCHMARK-001",1,"Active",16.86,1,"PFS","Progression-Free Survival","Y","Y","Female",0
"SUBJ-0052","BENCHMARK-001",0,"Placebo",4.45,0,"PFS","Progression-Free Survival","Y","Y","Male",1
"SUBJ-0053","BENCHMARK-001",1,"Active",2.38,0,"PFS","Progression-Free Survival","Y","Y","Female",0
"SUBJ-0054","BENCHMARK-001",1,"Active",17.88,0,"PFS","Progression-Free Survival","Y","Y","Female",1
"SUBJ-0055","BENCHMARK-001",1,"Active",4.69,1,"PFS","Progression-Free Survival","Y","Y","Male",0
"SUBJ-0056","BENCHMARK-001",1,"Active",8.48,0,"PFS","Progression-Free Survival","Y","Y","Female",0
"SUBJ-0057","BENCHMARK-001",0,"Placebo",2.35,0,"PFS","Progression-Free Survival","Y","Y","Female",0
"SUBJ-0058","BENCHMARK-001",1,"Active",15.16,1,"PFS","Progression-Free Survival","Y","Y","Male",0
"SUBJ-0059","BENCHMARK-001",0,"Placebo",8.42,0,"PFS","Progression-Free Survival","Y","Y","Male",0
"SUBJ-0060","BENCHMARK-001",0,"Placebo",7.97,0,"PFS","Progression-Free Survival","Y","Y","Female",0
"SUBJ-0061","BENCHMARK-001",0,"Placebo",20.98,0,"PFS","Progression-Free Survival","Y","Y","Female",1
"SUBJ-0062","BENCHMARK-001",1,"Active",29.65,0,"PFS","Progression-Free Survival","Y","Y","Female",0
"SUBJ-0063","BENCHMARK-001",1,"Active",18.37,0,"PFS","Progression-Free Survival","Y","Y","Female",1
"SUBJ-0064","BENCHMARK-001",1,"Active",3.54,0,"PFS","Progression-Free Survival","Y","Y","Male",1
"SUBJ-0065","BENCHMARK-001",1,"Active",3.44,0,"PFS","Progression-Free Survival","Y","Y","Female",0
"SUBJ-0066","BENCHMARK-001",1,"Active",13.09,1,"PFS","Progression-Free Survival","Y","Y","Male",1
"SUBJ-0067","BENCHMARK-001",1,"Active",17.56,0,"PFS","Progression-Free Survival","Y","Y","Male",0
"SUBJ-0068","BENCHMARK-001",0,"Placebo",7.03,0,"PFS","Progression-Free Survival","Y","Y","Male",0
"SUBJ-0069","BENCHMARK-001",1,"Active",0.65,1,"PFS","Progression-Free Survival","Y","Y","Male",1
"SUBJ-0070","BENCHMARK-001",0,"Placebo",2.15,0,"PFS","Progression-Free Survival","Y","Y","Male",0
"SUBJ-0071","BENCHMARK-001",1,"Active",1.41,1,"PFS","Progression-Free Survival","Y","Y","Female",0
"SUBJ-0072","BENCHMARK-001",0,"Placebo",4.34,0,"PFS","Progression-Free Survival","Y","N","Male",0
"SUBJ-0073","BENCHMARK-001",1,"Active",0.02,0,"PFS","Progression-Free Survival","Y","Y","Female",0
"SUBJ-0074","BENCHMARK-001",1,"Active",0.2,1,"PFS","Progression-Free Survival","Y","Y","Male",0
"SUBJ-0075","BENCHMARK-001",1,"Active",4.05,0,"PFS","Progression-Free Survival","Y","Y","Female",0
"SUBJ-0076","BENCHMARK-001",1,"Active",8.77,1,"PFS","Progression-Free Survival","Y","Y","Male",0
"SUBJ-0077","BENCHMARK-001",0,"Placebo",5.45,0,"PFS","Progression-Free Survival","Y","Y","Female",0
"SUBJ-0078","BENCHMARK-001",0,"Placebo",7.46,0,"PFS","Progression-Free Survival","Y","N","Female",0
"SUBJ-0079","BENCHMARK-001",0,"Placebo",11.51,0,"PFS","Progression-Free Survival","Y","Y","Male",1
"SUBJ-0080","BENCHMARK-001",0,"Placebo",17.87,1,"PFS","Progression-Free Survival","Y","Y","Female",0
"SUBJ-0081","BENCHMARK-001",1,"Active",6.89,0,"PFS","Progression-Free Survival","Y","Y","Female",0
"SUBJ-0082","BENCHMARK-001",0,"Placebo",2.9,1,"PFS","Progression-Free Survival","Y","Y","Female",1
"SUBJ-0083","BENCHMARK-001",1,"Active",5.4,1,"PFS","Progression-Free Survival","Y","Y","Male",1
"SUBJ-0084","BENCHMARK-001",0,"Placebo",9.6,1,"PFS","Progression-Free Survival","Y","Y","Male",1
"SUBJ-0085","BENCHMARK-001",0,"Placebo",2.24,0,"PFS","Progression-Free Survival","Y","Y","Female",0
"SUBJ-0086","BENCHMARK-001",1,"Active",3.52,0,"PFS","Progression-Free Survival","Y","Y","Female",0
"SUBJ-0087","BENCHMARK-001",1,"Active",24.94,1,"PFS","Progression-Free Survival","Y","Y","Female",0
"SUBJ-0088","BENCHMARK-001",0,"Placebo",14.74,0,"PFS","Progression-Free Survival","Y","Y","Female",1
"SUBJ-0089","BENCHMARK-001",0,"Placebo",4.15,0,"PFS","Progression-Free Survival","Y","Y","Male",0
"SUBJ-0090","BENCHMARK-001",0,"Placebo",5.05,1,"PFS","Progression-Free Survival","N","Y","Female",1
"SUBJ-0091","BENCHMARK-001",0,"Placebo",7.68,0,"PFS","Progression-Free Survival","Y","Y","Female",0
"SUBJ-0092","BENCHMARK-001",1,"Active",4.66,0,"PFS","Progression-Free Survival","Y","Y","Female",0
"SUBJ-0093","BENCHMARK-001",0,"Placebo",1.73,0,"PFS","Progression-Free Survival","Y","Y","Female",0
"SUBJ-0094","BENCHMARK-001",1,"Active",12.73,1,"PFS","Progression-Free Survival","Y","Y","Male",0
"SUBJ-0095","BENCHMARK-001",1,"Active",11.33,0,"PFS","Progression-Free Survival","Y","Y","Female",1
"SUBJ-0096","BENCHMARK-001",1,"Active",5.96,0,"PFS","Progression-Free Survival","Y","Y","Female",1
"SUBJ-0097","BENCHMARK-001",0,"Placebo",23.8,0,"PFS","Progression-Free Survival","Y","Y","Male",0
"SUBJ-0098","BENCHMARK-001",1,"Active",4.85,0,"PFS","Progression-Free Survival","Y","Y","Female",0
"SUBJ-0099","BENCHMARK-001",1,"Active",0.87,0,"PFS","Progression-Free Survival","Y","Y","Female",0
"SUBJ-0100","BENCHMARK-001",1,"Active",18.75,1,"PFS","Progression-Free Survival","Y","Y","Male",1
"SUBJ-0101","BENCHMARK-001",1,"Active",5.51,1,"PFS","Progression-Free Survival","Y","Y","Male",0
"SUBJ-0102","BENCHMARK-001",1,"Active",2.3,0,"PFS","Progression-Free Survival","Y","Y","Female",1
"SUBJ-0103","BENCHMARK-001",0,"Placebo",1.42,1,"PFS","Progression-Free Survival","Y","Y","Male",0
"SUBJ-0104","BENCHMARK-001",1,"Active",5.74,1,"PFS","Progression-Free Survival","Y","Y","Male",0
"SUBJ-0105","BENCHMARK-001",0,"Placebo",0.52,0,"PFS","Progression-Free Survival","Y","Y","Female",1
"SUBJ-0106","BENCHMARK-001",1,"Active",4.2,0,"PFS","Progression-Free Survival","Y","Y","Female",1
"SUBJ-0107","BENCHMARK-001",1,"Active",3.43,1,"PFS","Progression-Free Survival","Y","Y","Male",0
"SUBJ-0108","BENCHMARK-001",0,"Placebo",3.31,0,"PFS","Progression-Free Survival","Y","Y","Female",0
"SUBJ-0109","BENCHMARK-001",1,"Active",25.4,1,"PFS","Progression-Free Survival","Y","Y","Female",1
"SUBJ-0110","BENCHMARK-001",0,"Placebo",33.92,0,"PFS","Progression-Free Survival","Y","Y","Female",0
"SUBJ-0111","BENCHMARK-001",1,"Active",0.31,0,"PFS","Progression-Free Survival","Y","Y","Male",0
"SUBJ-0112","BENCHMARK-001",0,"Placebo",2.26,0,"PFS","Progression-Free Survival","Y","Y","Female",0
"SUBJ-0113","BENCHMARK-001",1,"Active",2.15,1,"PFS","Progression-Free Survival","Y","Y","Male",1
"SUBJ-0114","BENCHMARK-001",0,"Placebo",0.65,0,"PFS","Progression-Free Survival","Y","Y","Male",0
"SUBJ-0115","BENCHMARK-001",1,"Active",8.69,0,"PFS","Progression-Free Survival","Y","Y","Female",1
"SUBJ-0116","BENCHMARK-001",1,"Active",8.33,1,"PFS","Progression-Free Survival","Y","Y","Female",1
"SUBJ-0117","BENCHMARK-001",0,"Placebo",10.71,0,"PFS","Progression-Free Survival","Y","Y","Male",1
"SUBJ-0118","BENCHMARK-001",0,"Placebo",18.88,0,"PFS","Progression-Free Survival","Y","N","Male",0
"SUBJ-0119","BENCHMARK-001",0,"Placebo",7.53,1,"PFS","Progression-Free Survival","Y","Y","Female",0
"SUBJ-0120","BENCHMARK-001",1,"Active",7.32,1,"PFS","Progression-Free Survival","Y","Y","Male",1
"SUBJ-0121","BENCHMARK-001",0,"Placebo",4.81,0,"PFS","Progression-Free Survival","Y","Y","Female",1
"SUBJ-0122","BENCHMARK-001",1,"Active",1.51,1,"PFS","Progression-Free Survival","Y","Y","Male",1
"SUBJ-0123","BENCHMARK-001",1,"Active",14.49,0,"PFS","Progression-Free Survival","Y","Y","Female",0
"SUBJ-0124","BENCHMARK-001",1,"Active",0.99,0,"PFS","Progression-Free Survival","Y","N","Female",0
"SUBJ-0125","BENCHMARK-001",1,"Active",24.52,1,"PFS","Progression-Free Survival","Y","Y","Female",1
"SUBJ-0126","BENCHMARK-001",0,"Placebo",8.04,0,"PFS","Progression-Free Survival","Y","Y","Male",0
"SUBJ-0127","BENCHMARK-001",0,"Placebo",0.25,0,"PFS","Progression-Free Survival","Y","Y","Female",0
"SUBJ-0128","BENCHMARK-001",1,"Active",0.34,0,"PFS","Progression-Free Survival","Y","Y","Female",0
"SUBJ-0129","BENCHMARK-001",0,"Placebo",0.79,0,"PFS","Progression-Free Survival","Y","Y","Male",0
"SUBJ-0130","BENCHMARK-001",0,"Placebo",6.5,0,"PFS","Progression-Free Survival","Y","Y","Female",1
"SUBJ-0131","BENCHMARK-001",0,"Placebo",24.61,1,"PFS","Progression-Free Survival","Y","Y","Male",0
"SUBJ-0132","BENCHMARK-001",1,"Active",15.58,0,"PFS","Progression-Free Survival","Y","Y","Female",1
"SUBJ-0133","BENCHMARK-001",0,"Placebo",7.71,1,"PFS","Progression-Free Survival","N","Y","Female",0
"SUBJ-0134","BENCHMARK-001",0,"Placebo",2.6,0,"PFS","Progression-Free Survival","Y","Y","Female",0
"SUBJ-0135","BENCHMARK-001",1,"Active",2.9,0,"PFS","Progression-Free Survival","Y","Y","Female",1
"SUBJ-0136","BENCHMARK-001",1,"Active",5.34,1,"PFS","Progression-Free Survival","N","Y","Female",1
"SUBJ-0137","BENCHMARK-001",1,"Active",9.14,0,"PFS","Progression-Free Survival","Y","Y","Female",1
"SUBJ-0138","BENCHMARK-001",0,"Placebo",2.87,0,"PFS","Progression-Free Survival","Y","Y","Female",0
"SUBJ-0139","BENCHMARK-001",0,"Placebo",5.39,1,"PFS","Progression-Free Survival","Y","Y","Male",1
"SUBJ-0140","BENCHMARK-001",1,"Active",3.68,0,"PFS","Progression-Free Survival","Y","Y","Male",0
"SUBJ-0141","BENCHMARK-001",0,"Placebo",3.85,1,"PFS","Progression-Free Survival","Y","Y","Male",1
"SUBJ-0142","BENCHMARK-001",0,"Placebo",7.97,0,"PFS","Progression-Free Survival","Y","Y","Female",0
"SUBJ-0143","BENCHMARK-001",1,"Active",8.24,0,"PFS","Progression-Free Survival","Y","Y","Female",0
"SUBJ-0144","BENCHMARK-001",0,"Placebo",2.99,0,"PFS","Progression-Free Survival","Y","Y","Female",1
"SUBJ-0145","BENCHMARK-001",0,"Placebo",2.36,0,"PFS","Progression-Free Survival","Y","Y","Female",1
"SUBJ-0146","BENCHMARK-001",0,"Placebo",20.29,0,"PFS","Progression-Free Survival","Y","Y","Male",0
"SUBJ-0147","BENCHMARK-001",1,"Active",2.69,1,"PFS","Progression-Free Survival","Y","Y","Male",1
"SUBJ-0148","BENCHMARK-001",1,"Active",1.3,1,"PFS","Progression-Free Survival","N","Y","Male",0
"SUBJ-0149","BENCHMARK-001",0,"Placebo",0.89,1,"PFS","Progression-Free Survival","Y","N","Female",0
"SUBJ-0150","BENCHMARK-001",1,"Active",21.89,0,"PFS","Progression-Free Survival","Y","Y","Female",0
"SUBJ-0151","BENCHMARK-001",1,"Active",0.79,1,"PFS","Progression-Free Survival","Y","Y","Male",1
"SUBJ-0152","BENCHMARK-001",1,"Active",0.01,0,"PFS","Progression-Free Survival","Y","Y","Female",0
"SUBJ-0153","BENCHMARK-001",0,"Placebo",2.95,0,"PFS","Progression-Free Survival","Y","Y","Female",1
"SUBJ-0154","BENCHMARK-001",0,"Placebo",6.99,1,"PFS","Progression-Free Survival","Y","Y","Male",1
"SUBJ-0155","BENCHMARK-001",0,"Placebo",9.85,1,"PFS","Progression-Free Survival","Y","Y","Male",0
"SUBJ-0156","BENCHMARK-001",0,"Placebo",4.72,1,"PFS","Progression-Free Survival","Y","Y","Female",1
"SUBJ-0157","BENCHMARK-001",0,"Placebo",0.39,1,"PFS","Progression-Free Survival","Y","Y","Male",1
"SUBJ-0158","BENCHMARK-001",0,"Placebo",1.68,1,"PFS","Progression-Free Survival","Y","Y","Male",1
"SUBJ-0159","BENCHMARK-001",0,"Placebo",2.7,0,"PFS","Progression-Free Survival","Y","Y","Male",0
"SUBJ-0160","BENCHMARK-001",1,"Active",16.39,0,"PFS","Progression-Free Survival","Y","Y","Female",1
"SUBJ-0161","BENCHMARK-001",0,"Placebo",8.5,0,"PFS","Progression-Free Survival","Y","Y","Male",1
"SUBJ-0162","BENCHMARK-001",1,"Active",0.16,1,"PFS","Progression-Free Survival","Y","Y","Female",1
"SUBJ-0163","BENCHMARK-001",1,"Active",5.98,0,"PFS","Progression-Free Survival","Y","Y","Female",0
"SUBJ-0164","BENCHMARK-001",0,"Placebo",7.91,0,"PFS","Progression-Free Survival","Y","N","Male",0
"SUBJ-0165","BENCHMARK-001",1,"Active",19.76,0,"PFS","Progression-Free Survival","Y","Y","Female",1
"SUBJ-0166","BENCHMARK-001",1,"Active",4.27,1,"PFS","Progression-Free Survival","Y","Y","Male",0
"SUBJ-0167","BENCHMARK-001",0,"Placebo",12.8,0,"PFS","Progression-Free Survival","Y","Y","Male",1
"SUBJ-0168","BENCHMARK-001",0,"Placebo",7.08,1,"PFS","Progression-Free Survival","Y","Y","Male",0
"SUBJ-0169","BENCHMARK-001",1,"Active",0.05,1,"PFS","Progression-Free Survival","Y","Y","Female",0
"SUBJ-0170","BENCHMARK-001",0,"Placebo",5.39,0,"PFS","Progression-Free Survival","Y","N","Female",1
"SUBJ-0171","BENCHMARK-001",1,"Active",28.6,0,"PFS","Progression-Free Survival","Y","Y","Female",1
"SUBJ-0172","BENCHMARK-001",0,"Placebo",2.71,1,"PFS","Progression-Free Survival","Y","Y","Male",1
"SUBJ-0173","BENCHMARK-001",1,"Active",1.2,0,"PFS","Progression-Free Survival","Y","Y","Female",1
"SUBJ-0174","BENCHMARK-001",1,"Active",6.2,0,"PFS","Progression-Free Survival","Y","Y","Female",0
"SUBJ-0175","BENCHMARK-001",0,"Placebo",13.83,0,"PFS","Progression-Free Survival","Y","Y","Female",0
"SUBJ-0176","BENCHMARK-001",1,"Active",11.91,0,"PFS","Progression-Free Survival","Y","Y","Male",0
"SUBJ-0177","BENCHMARK-001",0,"Placebo",12.64,1,"PFS","Progression-Free Survival","Y","Y","Male",1
"SUBJ-0178","BENCHMARK-001",1,"Active",8.76,0,"PFS","Progression-Free Survival","Y","Y","Female",0
"SUBJ-0179","BENCHMARK-001",1,"Active",0.85,1,"PFS","Progression-Free Survival","Y","Y","Female",1
"SUBJ-0180","BENCHMARK-001",1,"Active",1.81,0,"PFS","Progression-Free Survival","Y","Y","Male",0
"SUBJ-0181","BENCHMARK-001",1,"Active",7.12,0,"PFS","Progression-Free Survival","Y","Y","Male",0
"SUBJ-0182","BENCHMARK-001",1,"Active",1.02,0,"PFS","Progression-Free Survival","Y","Y","Female",1
"SUBJ-0183","BENCHMARK-001",1,"Active",2.45,1,"PFS","Progression-Free Survival","Y","Y","Female",0
"SUBJ-0184","BENCHMARK-001",0,"Placebo",3.3,0,"PFS","Progression-Free Survival","Y","Y","Male",0
"SUBJ-0185","BENCHMARK-001",1,"Active",2.92,1,"PFS","Progression-Free Survival","Y","Y","Female",1
"SUBJ-0186","BENCHMARK-001",1,"Active",2.13,0,"PFS","Progression-Free Survival","Y","Y","Male",1
"SUBJ-0187","BENCHMARK-001",1,"Active",0.85,1,"PFS","Progression-Free Survival","Y","Y","Male",0
"SUBJ-0188","BENCHMARK-001",0,"Placebo",2.54,0,"PFS","Progression-Free Survival","Y","Y","Female",1
"SUBJ-0189","BENCHMARK-001",1,"Active",8.03,0,"PFS","Progression-Free Survival","Y","Y","Female",0
"SUBJ-0190","BENCHMARK-001",1,"Active",0.72,0,"PFS","Progression-Free Survival","Y","Y","Female",0
"SUBJ-0191","BENCHMARK-001",0,"Placebo",0.42,0,"PFS","Progression-Free Survival","Y","Y","Female",1
"SUBJ-0192","BENCHMARK-001",1,"Active",6.95,1,"PFS","Progression-Free Survival","N","Y","Male",0
"SUBJ-0193","BENCHMARK-001",1,"Active",0.42,0,"PFS","Progression-Free Survival","N","Y","Female",0
"SUBJ-0194","BENCHMARK-001",1,"Active",3.02,1,"PFS","Progression-Free Survival","Y","Y","Male",0
"SUBJ-0195","BENCHMARK-001",1,"Active",1.44,0,"PFS","Progression-Free Survival","Y","Y","Male",0
"SUBJ-0196","BENCHMARK-001",1,"Active",5.98,0,"PFS","Progression-Free Survival","Y","Y","Female",1
"SUBJ-0197","BENCHMARK-001",0,"Placebo",2.3,1,"PFS","Progression-Free Survival","Y","Y","Male",1
"SUBJ-0198","BENCHMARK-001",0,"Placebo",13.92,0,"PFS","Progression-Free Survival","N","Y","Male",1
"SUBJ-0199","BENCHMARK-001",1,"Active",1.59,0,"PFS","Progression-Free Survival","Y","Y","Male",0
"SUBJ-0200","BENCHMARK-001",1,"Active",12.36,1,"PFS","Progression-Free Survival","Y","Y","Female",0
