"USUBJID","STUDYID","TRT01PN","TRT01P","AVAL","CNSR","PARAMCD","PARAM","ITTFL","SAFFL","SEX","ECOG","AGEGR1"
"SUBJ-0001","BENCHMARK-001",0,"Placebo",7.24,0,"OS","Overall Survival","Y","Y","M",1,"<65"
"SUBJ-0002","BENCHMARK-001",0,"Placebo",16.21,0,"OS","Overall Survival","Y","Y","M",0,"<65"
"SUBJ-0003","BENCHMARK-001",0,"Placebo",3.53,0,"OS","Overall Survival","Y","Y","F",1,">=65"
"SUBJ-0004","BENCHMARK-001",0,"Placebo",1.7,0,"OS","Overall Survival","Y","Y","M",0,"<65"
"SUBJ-0005","BENCHMARK-001",1,"Active",8.07,0,"OS","Overall Survival","Y","Y","M",0,"<65"
"SUBJ-0006","BENCHMARK-001",1,"Active",27.98,0,"OS","Overall Survival","Y","Y","F",0,">=65"
"SUBJ-0007","BENCHMARK-001",1,"Active",83.09,0,"OS","Overall Survival","Y","Y","M",0,"<65"
"SUBJ-0008","BENCHMARK-001",1,"Active",29.8,0,"OS","Overall Survival","Y","Y","M",0,"<65"
"SUBJ-0009","BENCHMARK-001",0,"Placebo",1.92,0,"OS","Overall Survival","Y","Y","F",1,">=65"
"SUBJ-0010","BENCHMARK-001",1,"Active",3.2,0,"OS","Overall Survival","Y","Y","F",0,">=65"
"SUBJ-0011","BENCHMARK-001",0,"Placebo",1.74,0,"OS","Overall Survival","Y","Y","M",0,"<65"
"SUBJ-0012","BENCHMARK-001",1,"Active",5.86,0,"OS","Overall Survival","Y","Y","M",1,"<65"
"SUBJ-0013","BENCHMARK-001",0,"Placebo",18.61,0,"OS","Overall Survival","Y","Y","M",1,"<65"
"SUBJ-0014","BENCHMARK-001",1,"Active",50.36,0,"OS","Overall Survival","Y","Y","M",0,"<65"
"SUBJ-0015","BENCHMARK-001",0,"Placebo",0.03,1,"OS","Overall Survival","Y","Y","F",0,">=65"
"SUBJ-0016","BENCHMARK-001",0,"Placebo",30.23,0,"OS","Overall Survival","Y","Y","F",1,"<65"
"SUBJ-0017","BENCHMARK-001",1,"Active",96.65,0,"OS","Overall Survival","Y","Y","M",1,">=65"
"SUBJ-0018","BENCHMARK-001",1,"Active",1.62,0,"OS","Overall Survival","Y","Y","M",0,"<65"
"SUBJ-0019","BENCHMARK-001",1,"Active",37.13,0,"OS","Overall Survival","Y","Y","M",1,">=65"
"SUBJ-0020","BENCHMARK-001",1,"Active",58.21,0,"OS","Overall Survival","Y","N","M",1,">=65"
"SUBJ-0021","BENCHMARK-001",0,"Placebo",2.48,0,"OS","Overall Survival","Y","Y","M",1,"<65"
"SUBJ-0022","BENCHMARK-001",0,"Placebo",44.66,0,"OS","Overall Survival","Y","Y","M",0,">=65"
"SUBJ-0023","BENCHMARK-001",0,"Placebo",41.96,0,"OS","Overall Survival","Y","Y","F",1,"<65"
"SUBJ-0024","BENCHMARK-001",0,"Placebo",2,0,"OS","Overall Survival","Y","Y","F",1,"<65"
"SUBJ-0025","BENCHMARK-001",0,"Placebo",16.09,0,"OS","Overall Survival","Y","Y","F",0,"<65"
"SUBJ-0026","BENCHMARK-001",1,"Active",22.18,0,"OS","Overall Survival","Y","Y","F",0,">=65"
"SUBJ-0027","BENCHMARK-001",0,"Placebo",1.24,0,"OS","Overall Survival","Y","Y","F",1,"<65"
"SUBJ-0028","BENCHMARK-001",0,"Placebo",3.14,1,"OS","Overall Survival","Y","Y","F",1,"<65"
"SUBJ-0029","BENCHMARK-001",0,"Placebo",12.07,0,"OS","Overall Survival","Y","Y","M",0,"<65"
"SUBJ-0030","BENCHMARK-001",0,"Placebo",49.56,0,"OS","Overall Survival","Y","Y","M",1,">=65"
"SUBJ-0031","BENCHMARK-001",1,"Active",4.98,1,"OS","Overall Survival","Y","Y","F",1,"<65"
"SUBJ-0032","BENCHMARK-001",1,"Active",11.57,0,"OS","Overall Survival","Y","Y","F",1,"<65"
"SUBJ-0033","BENCHMARK-001",1,"Active",61.81,0,"OS","Overall Survival","Y","Y","F",0,">=65"
"SUBJ-0034","BENCHMARK-001",1,"Active",39.54,0,"OS","Overall Survival","Y","Y","M",0,"<65"
"SUBJ-0035","BENCHMARK-001",0,"Placebo",2.87,0,"OS","Overall Survival","Y","Y","F",1,"<65"
"SUBJ-0036","BENCHMARK-001",1,"Active",2.54,0,"OS","Overall Survival","Y","Y","F",1,"<65"
"SUBJ-0037","BENCHMARK-001",0,"Placebo",15.9,0,"OS","Overall Survival","Y","Y","M",0,"<65"
"SUBJ-0038","BENCHMARK-001",1,"Active",28.01,0,"OS","Overall Survival","Y","Y","M",1,">=65"
"SUBJ-0039","BENCHMARK-001",1,"Active",26.13,0,"OS","Overall Survival","Y","Y","M",0,"<65"
"SUBJ-0040","BENCHMARK-001",1,"Active",35.23,0,"OS","Overall Survival","Y","Y","M",0,">=65"
"SUBJ-0041","BENCHMARK-001",0,"Placebo",19.15,0,"OS","Overall Survival","Y","Y","M",0,"<65"
"SUBJ-0042","BENCHMARK-001",0,"Placebo",68.05,0,"OS","Overall Survival","Y","Y","F",1,"<65"
"SUBJ-0043","BENCHMARK-001",1,"Active",13.11,1,"OS","Overall Survival","Y","Y","F",1,"<65"
"SUBJ-0044","BENCHMARK-001",1,"Active",3.19,0,"OS","Overall Survival","Y","Y","F",0,"<65"
"SUBJ-0045","BENCHMARK-001",1,"Active",98.61,0,"OS","Overall Survival","Y","Y","F",0,"<65"
"SUBJ-0046","BENCHMARK-001",1,"Active",28.31,0,"OS","Overall Survival","Y","Y","M",0,"<65"
"SUBJ-0047","BENCHMARK-001",1,"Active",95.85,1,"OS","Overall Survival","Y","Y","M",0,"<65"
"SUBJ-0048","BENCHMARK-001",1,"Active",25.7,0,"OS","Overall Survival","Y","Y","M",0,">=65"
"SUBJ-0049","BENCHMARK-001",1,"Active",4.11,1,"OS","Overall Survival","Y","Y","M",0,"<65"
"SUBJ-0050","BENCHMARK-001",0,"Placebo",20.66,0,"OS","Overall Survival","Y","Y","F",0,"<65"
"SUBJ-0051","BENCHMARK-001",1,"Active",67.75,0,"OS","Overall Survival","Y","Y","M",0,"<65"
"SUBJ-0052","BENCHMARK-001",0,"Placebo",10.38,0,"OS","Overall Survival","Y","Y","M",1,"<65"
"SUBJ-0053","BENCHMARK-001",1,"Active",5.55,0,"OS","Overall Survival","Y","Y","M",0,"<65"
"SUBJ-0054","BENCHMARK-001",1,"Active",41.73,0,"OS","Overall Survival","Y","Y","M",1,"<65"
"SUBJ-0055","BENCHMARK-001",1,"Active",23.47,1,"OS","Overall Survival","Y","Y","F",0,"<65"
"SUBJ-0056","BENCHMARK-001",1,"Active",19.79,0,"OS","Overall Survival","Y","Y","M",0,"<65"
"SUBJ-0057","BENCHMARK-001",0,"Placebo",5.49,0,"OS","Overall Survival","Y","Y","M",0,"<65"
"SUBJ-0058","BENCHMARK-001",1,"Active",44.63,0,"OS","Overall Survival","Y","Y","F",0,"<65"
"SUBJ-0059","BENCHMARK-001",0,"Placebo",19.65,0,"OS","Overall Survival","Y","Y","F",0,"<65"
"SUBJ-0060","BENCHMARK-001",0,"Placebo",18.6,0,"OS","Overall Survival","Y","Y","M",0,"<65"
"SUBJ-0061","BENCHMARK-001",0,"Placebo",48.96,0,"OS","Overall Survival","Y","Y","M",1,"<65"
"SUBJ-0062","BENCHMARK-001",1,"Active",69.17,0,"OS","Overall Survival","Y","Y","M",0,"<65"
"SUBJ-0063","BENCHMARK-001",1,"Active",42.87,0,"OS","Overall Survival","Y","Y","M",1,"<65"
"SUBJ-0064","BENCHMARK-001",1,"Active",8.25,0,"OS","Overall Survival","Y","Y","F",1,">=65"
"SUBJ-0065","BENCHMARK-001",1,"Active",8.03,0,"OS","Overall Survival","Y","Y","M",0,"<65"
"SUBJ-0066","BENCHMARK-001",1,"Active",34.15,0,"OS","Overall Survival","Y","Y","F",1,"<65"
"SUBJ-0067","BENCHMARK-001",1,"Active",40.98,0,"OS","Overall Survival","Y","Y","F",0,">=65"
"SUBJ-0068","BENCHMARK-001",0,"Placebo",16.41,0,"OS","Overall Survival","Y","Y","F",0,"<65"
"SUBJ-0069","BENCHMARK-001",1,"Active",3.24,1,"OS","Overall Survival","Y","Y","F",1,"<65"
"SUBJ-0070","BENCHMARK-001",0,"Placebo",5.02,0,"OS","Overall Survival","Y","Y","F",0,">=65"
"SUBJ-0071","BENCHMARK-001",1,"Active",7.03,1,"OS","Overall Survival","Y","Y","M",0,"<65"
"SUBJ-0072","BENCHMARK-001",0,"Placebo",10.13,0,"OS","Overall Survival","Y","Y","F",0,">=65"
"SUBJ-0073","BENCHMARK-001",1,"Active",0.04,0,"OS","Overall Survival","N","Y","M",0,"<65"
"SUBJ-0074","BENCHMARK-001",1,"Active",1.02,1,"OS","Overall Survival","Y","Y","F",0,"<65"
"SUBJ-0075","BENCHMARK-001",1,"Active",9.44,0,"OS","Overall Survival","N","Y","M",0,"<65"
"SUBJ-0076","BENCHMARK-001",1,"Active",24.58,0,"OS","Overall Survival","Y","Y","F",0,"<65"
"SUBJ-0077","BENCHMARK-001",0,"Placebo",12.71,0,"OS","Overall Survival","Y","Y","M",0,">=65"
"SUBJ-0078","BENCHMARK-001",0,"Placebo",17.41,0,"OS","Overall Survival","Y","Y","M",0,"<65"
"SUBJ-0079","BENCHMARK-001",0,"Placebo",26.86,0,"OS","Overall Survival","Y","Y","F",1,"<65"
"SUBJ-0080","BENCHMARK-001",0,"Placebo",51.18,0,"OS","Overall Survival","Y","Y","M",0,"<65"
"SUBJ-0081","BENCHMARK-001",1,"Active",16.08,0,"OS","Overall Survival","N","Y","M",0,">=65"
"SUBJ-0082","BENCHMARK-001",0,"Placebo",14.52,1,"OS","Overall Survival","Y","Y","M",1,">=65"
"SUBJ-0083","BENCHMARK-001",1,"Active",27.01,1,"OS","Overall Survival","Y","Y","F",1,"<65"
"SUBJ-0084","BENCHMARK-001",0,"Placebo",48.02,1,"OS","Overall Survival","Y","Y","F",1,"<65"
"SUBJ-0085","BENCHMARK-001",0,"Placebo",5.23,0,"OS","Overall Survival","Y","N","M",0,"<65"
"SUBJ-0086","BENCHMARK-001",1,"Active",8.21,0,"OS","Overall Survival","Y","Y","M",0,"<65"
"SUBJ-0087","BENCHMARK-001",1,"Active",60.81,0,"OS","Overall Survival","Y","Y","M",0,"<65"
"SUBJ-0088","BENCHMARK-001",0,"Placebo",34.4,0,"OS","Overall Survival","Y","Y","M",1,"<65"
"SUBJ-0089","BENCHMARK-001",0,"Placebo",9.69,0,"OS","Overall Survival","Y","Y","F",0,"<65"
"SUBJ-0090","BENCHMARK-001",0,"Placebo",23.6,0,"OS","Overall Survival","Y","Y","M",1,"<65"
"SUBJ-0091","BENCHMARK-001",0,"Placebo",17.91,0,"OS","Overall Survival","Y","Y","M",0,">=65"
"SUBJ-0092","BENCHMARK-001",1,"Active",10.87,0,"OS","Overall Survival","Y","Y","M",0,"<65"
"SUBJ-0093","BENCHMARK-001",0,"Placebo",4.03,0,"OS","Overall Survival","Y","Y","M",0,"<65"
"SUBJ-0094","BENCHMARK-001",1,"Active",63.66,1,"OS","Overall Survival","Y","Y","F",0,">=65"
"SUBJ-0095","BENCHMARK-001",1,"Active",26.43,0,"OS","Overall Survival","Y","Y","M",1,"<65"
"SUBJ-0096","BENCHMARK-001",1,"Active",13.91,0,"OS","Overall Survival","Y","Y","M",1,"<65"
"SUBJ-0097","BENCHMARK-001",0,"Placebo",55.54,0,"OS","Overall Survival","Y","Y","F",0,">=65"
"SUBJ-0098","BENCHMARK-001",1,"Active",11.33,0,"OS","Overall Survival","Y","Y","M",0,"<65"
"SUBJ-0099","BENCHMARK-001",1,"Active",2.03,0,"OS","Overall Survival","Y","Y","M",0,"<65"
"SUBJ-0100","BENCHMARK-001",1,"Active",85.52,0,"OS","Overall Survival","Y","Y","F",1,"<65"
"SUBJ-0101","BENCHMARK-001",1,"Active",23.9,0,"OS","Overall Survival","Y","Y","F",0,">=65"
"SUBJ-0102","BENCHMARK-001",1,"Active",5.37,0,"OS","Overall Survival","Y","N","M",1,"<65"
"SUBJ-0103","BENCHMARK-001",0,"Placebo",7.12,1,"OS","Overall Survival","Y","Y","F",0,"<65"
"SUBJ-0104","BENCHMARK-001",1,"Active",28.72,1,"OS","Overall Survival","Y","Y","F",0,"<65"
"SUBJ-0105","BENCHMARK-001",0,"Placebo",1.21,0,"OS","Overall Survival","Y","Y","M",1,"<65"
"SUBJ-0106","BENCHMARK-001",1,"Active",9.8,0,"OS","Overall Survival","Y","Y","M",1,"<65"
"SUBJ-0107","BENCHMARK-001",1,"Active",17.14,1,"OS","Overall Survival","Y","Y","M",0,"<65"
"SUBJ-0108","BENCHMARK-001",0,"Placebo",7.72,0,"OS","Overall Survival","Y","Y","M",0,"<65"
"SUBJ-0109","BENCHMARK-001",1,"Active",61.64,0,"OS","Overall Survival","N","Y","M",1,"<65"
"SUBJ-0110","BENCHMARK-001",0,"Placebo",79.15,0,"OS","Overall Survival","Y","Y","M",0,"<65"
"SUBJ-0111","BENCHMARK-001",1,"Active",0.71,0,"OS","Overall Survival","Y","N","F",0,"<65"
"SUBJ-0112","BENCHMARK-001",0,"Placebo",5.28,0,"OS","Overall Survival","Y","Y","M",0,"<65"
"SUBJ-0113","BENCHMARK-001",1,"Active",10.75,1,"OS","Overall Survival","Y","Y","F",1,">=65"
"SUBJ-0114","BENCHMARK-001",0,"Placebo",1.51,0,"OS","Overall Survival","N","Y","M",0,"<65"
"SUBJ-0115","BENCHMARK-001",1,"Active",20.28,0,"OS","Overall Survival","Y","Y","M",1,"<65"
"SUBJ-0116","BENCHMARK-001",1,"Active",41.65,1,"OS","Overall Survival","Y","Y","M",1,">=65"
"SUBJ-0117","BENCHMARK-001",0,"Placebo",24.98,0,"OS","Overall Survival","Y","Y","F",1,"<65"
"SUBJ-0118","BENCHMARK-001",0,"Placebo",44.04,0,"OS","Overall Survival","Y","Y","F",0,"<65"
"SUBJ-0119","BENCHMARK-001",0,"Placebo",32.5,0,"OS","Overall Survival","N","Y","M",0,"<65"
"SUBJ-0120","BENCHMARK-001",1,"Active",19.66,0,"OS","Overall Survival","Y","Y","F",1,">=65"
"SUBJ-0121","BENCHMARK-001",0,"Placebo",11.23,0,"OS","Overall Survival","Y","Y","M",1,"<65"
"SUBJ-0122","BENCHMARK-001",1,"Active",7.54,1,"OS","Overall Survival","Y","Y","F",1,"<65"
"SUBJ-0123","BENCHMARK-001",1,"Active",33.81,0,"OS","Overall Survival","Y","Y","M",0,"<65"
"SUBJ-0124","BENCHMARK-001",1,"Active",2.31,0,"OS","Overall Survival","Y","Y","M",0,"<65"
"SUBJ-0125","BENCHMARK-001",1,"Active",60.25,0,"OS","Overall Survival","Y","Y","M",1,"<65"
"SUBJ-0126","BENCHMARK-001",0,"Placebo",18.76,0,"OS","Overall Survival","Y","Y","F",0,">=65"
"SUBJ-0127","BENCHMARK-001",0,"Placebo",0.57,0,"OS","Overall Survival","Y","Y","M",0,"<65"
"SUBJ-0128","BENCHMARK-001",1,"Active",0.8,0,"OS","Overall Survival","Y","Y","M",0,"<65"
"SUBJ-0129","BENCHMARK-001",0,"Placebo",1.84,0,"OS","Overall Survival","Y","Y","F",0,"<65"
"SUBJ-0130","BENCHMARK-001",0,"Placebo",15.17,0,"OS","Overall Survival","Y","Y","M",1,">=65"
"SUBJ-0131","BENCHMARK-001",0,"Placebo",71.06,0,"OS","Overall Survival","Y","Y","F",0,"<65"
"SUBJ-0132","BENCHMARK-001",1,"Active",36.34,0,"OS","Overall Survival","Y","Y","M",1,"<65"
"SUBJ-0133","BENCHMARK-001",0,"Placebo",29.39,0,"OS","Overall Survival","Y","Y","M",0,"<65"
"SUBJ-0134","BENCHMARK-001",0,"Placebo",6.06,0,"OS","Overall Survival","Y","Y","M",0,"<65"
"SUBJ-0135","BENCHMARK-001",1,"Active",6.77,0,"OS","Overall Survival","Y","Y","M",1,"<65"
"SUBJ-0136","BENCHMARK-001",1,"Active",24.15,0,"OS","Overall Survival","Y","Y","M",1,"<65"
"SUBJ-0137","BENCHMARK-001",1,"Active",21.33,0,"OS","Overall Survival","Y","Y","M",1,">=65"
"SUBJ-0138","BENCHMARK-001",0,"Placebo",6.7,0,"OS","Overall Survival","Y","Y","M",0,"<65"
"SUBJ-0139","BENCHMARK-001",0,"Placebo",26.96,1,"OS","Overall Survival","Y","Y","F",1,"<65"
"SUBJ-0140","BENCHMARK-001",1,"Active",8.58,0,"OS","Overall Survival","Y","Y","F",0,">=65"
"SUBJ-0141","BENCHMARK-001",0,"Placebo",19.23,1,"OS","Overall Survival","Y","Y","F",1,"<65"
"SUBJ-0142","BENCHMARK-001",0,"Placebo",18.6,0,"OS","Overall Survival","Y","Y","M",0,"<65"
"SUBJ-0143","BENCHMARK-001",1,"Active",19.22,0,"OS","Overall Survival","Y","Y","M",0,"<65"
"SUBJ-0144","BENCHMARK-001",0,"Placebo",6.97,0,"OS","Overall Survival","Y","Y","M",1,"<65"
"SUBJ-0145","BENCHMARK-001",0,"Placebo",5.5,0,"OS","Overall Survival","Y","Y","M",1,">=65"
"SUBJ-0146","BENCHMARK-001",0,"Placebo",47.35,0,"OS","Overall Survival","Y","Y","M",0,"<65"
"SUBJ-0147","BENCHMARK-001",1,"Active",13.46,1,"OS","Overall Survival","Y","Y","F",1,"<65"
"SUBJ-0148","BENCHMARK-001",1,"Active",6.52,1,"OS","Overall Survival","Y","Y","F",0,">=65"
"SUBJ-0149","BENCHMARK-001",0,"Placebo",4.47,1,"OS","Overall Survival","Y","Y","M",0,"<65"
"SUBJ-0150","BENCHMARK-001",1,"Active",51.07,0,"OS","Overall Survival","N","Y","M",0,"<65"
"SUBJ-0151","BENCHMARK-001",1,"Active",3.95,1,"OS","Overall Survival","Y","Y","F",1,"<65"
"SUBJ-0152","BENCHMARK-001",1,"Active",0.03,0,"OS","Overall Survival","Y","Y","M",0,"<65"
"SUBJ-0153","BENCHMARK-001",0,"Placebo",6.87,0,"OS","Overall Survival","Y","Y","M",1,"<65"
"SUBJ-0154","BENCHMARK-001",0,"Placebo",22.35,0,"OS","Overall Survival","N","Y","F",1,"<65"
"SUBJ-0155","BENCHMARK-001",0,"Placebo",35.76,0,"OS","Overall Survival","Y","Y","F",0,"<65"
"SUBJ-0156","BENCHMARK-001",0,"Placebo",11.55,0,"OS","Overall Survival","Y","Y","M",1,">=65"
"SUBJ-0157","BENCHMARK-001",0,"Placebo",1.97,1,"OS","Overall Survival","Y","Y","F",1,">=65"
"SUBJ-0158","BENCHMARK-001",0,"Placebo",8.39,1,"OS","Overall Survival","Y","Y","F",1,"<65"
"SUBJ-0159","BENCHMARK-001",0,"Placebo",6.3,0,"OS","Overall Survival","Y","Y","F",0,"<65"
"SUBJ-0160","BENCHMARK-001",1,"Active",38.24,0,"OS","Overall Survival","Y","Y","M",1,"<65"
"SUBJ-0161","BENCHMARK-001",0,"Placebo",19.83,0,"OS","Overall Survival","Y","Y","F",1,"<65"
"SUBJ-0162","BENCHMARK-001",1,"Active",0.8,1,"OS","Overall Survival","Y","Y","M",1,"<65"
"SUBJ-0163","BENCHMARK-001",1,"Active",13.96,0,"OS","Overall Survival","Y","Y","M",0,">=65"
"SUBJ-0164","BENCHMARK-001",0,"Placebo",18.46,0,"OS","Overall Survival","N","Y","F",0,">=65"
"SUBJ-0165","BENCHMARK-001",1,"Active",46.1,0,"OS","Overall Survival","Y","Y","M",1,"<65"
"SUBJ-0166","BENCHMARK-001",1,"Active",21.37,1,"OS","Overall Survival","Y","Y","F",0,"<65"
"SUBJ-0167","BENCHMARK-001",0,"Placebo",29.86,0,"OS","Overall Survival","Y","Y","F",1,">=65"
"SUBJ-0168","BENCHMARK-001",0,"Placebo",35.38,1,"OS","Overall Survival","Y","Y","M",0,">=65"
"SUBJ-0169","BENCHMARK-001",1,"Active",0.25,1,"OS","Overall Survival","Y","Y","M",0,"<65"
"SUBJ-0170","BENCHMARK-001",0,"Placebo",12.57,0,"OS","Overall Survival","Y","Y","M",1,"<65"
"SUBJ-0171","BENCHMARK-001",1,"Active",66.74,0,"OS","Overall Survival","Y","Y","M",1,"<65"
"SUBJ-0172","BENCHMARK-001",0,"Placebo",13.53,1,"OS","Overall Survival","Y","Y","F",1,"<65"
"SUBJ-0173","BENCHMARK-001",1,"Active",2.81,0,"OS","Overall Survival","Y","Y","M",1,">=65"
"SUBJ-0174","BENCHMARK-001",1,"Active",14.46,0,"OS","Overall Survival","Y","Y","M",0,"<65"
"SUBJ-0175","BENCHMARK-001",0,"Placebo",32.28,0,"OS","Overall Survival","Y","Y","M",0,">=65"
"SUBJ-0176","BENCHMARK-001",1,"Active",27.78,0,"OS","Overall Survival","Y","Y","F",0,"<65"
"SUBJ-0177","BENCHMARK-001",0,"Placebo",32.76,0,"OS","Overall Survival","Y","Y","F",1,"<65"
"SUBJ-0178","BENCHMARK-001",1,"Active",20.43,0,"OS","Overall Survival","Y","Y","M",0,"<65"
"SUBJ-0179","BENCHMARK-001",1,"Active",4.27,1,"OS","Overall Survival","Y","Y","M",1,"<65"
"SUBJ-0180","BENCHMARK-001",1,"Active",4.23,0,"OS","Overall Survival","Y","Y","F",0,"<65"
"SUBJ-0181","BENCHMARK-001",1,"Active",16.62,0,"OS","Overall Survival","Y","Y","F",0,">=65"
"SUBJ-0182","BENCHMARK-001",1,"Active",2.37,0,"OS","Overall Survival","Y","Y","M",1,"<65"
"SUBJ-0183","BENCHMARK-001",1,"Active",8.05,0,"OS","Overall Survival","Y","Y","M",0,"<65"
"SUBJ-0184","BENCHMARK-001",0,"Placebo",7.69,0,"OS","Overall Survival","Y","Y","F",0,"<65"
"SUBJ-0185","BENCHMARK-001",1,"Active",14.58,1,"OS","Overall Survival","Y","Y","M",1,"<65"
"SUBJ-0186","BENCHMARK-001",1,"Active",4.98,0,"OS","Overall Survival","Y","Y","F",1,"<65"
"SUBJ-0187","BENCHMARK-001",1,"Active",4.27,1,"OS","Overall Survival","Y","Y","F",0,">=65"
"SUBJ-0188","BENCHMARK-001",0,"Placebo",5.93,0,"OS","Overall Survival","Y","Y","M",1,"<65"
"SUBJ-0189","BENCHMARK-001",1,"Active",18.73,0,"OS","Overall Survival","Y","Y","M",0,">=65"
"SUBJ-0190","BENCHMARK-001",1,"Active",1.68,0,"OS","Overall Survival","Y","Y","M",0,"<65"
"SUBJ-0191","BENCHMARK-001",0,"Placebo",0.98,0,"OS","Overall Survival","Y","Y","M",1,"<65"
"SUBJ-0192","BENCHMARK-001",1,"Active",34.75,1,"OS","Overall Survival","Y","Y","F",0,"<65"
"SUBJ-0193","BENCHMARK-001",1,"Active",0.98,0,"OS","Overall Survival","Y","Y","M",0,"<65"
"SUBJ-0194","BENCHMARK-001",1,"Active",15.12,1,"OS","Overall Survival","Y","Y","F",0,">=65"
"SUBJ-0195","BENCHMARK-001",1,"Active",3.37,0,"OS","Overall Survival","Y","Y","F",0,"<65"
"SUBJ-0196","BENCHMARK-001",1,"Active",13.96,0,"OS","Overall Survival","Y","Y","M",1,">=65"
"SUBJ-0197","BENCHMARK-001",0,"Placebo",6.74,0,"OS","Overall Survival","Y","Y","F",1,"<65"
"SUBJ-0198","BENCHMARK-001",0,"Placebo",32.48,0,"OS","Overall Survival","Y","Y","M",1,"<65"
"SUBJ-0199","BENCHMARK-001",1,"Active",3.72,0,"OS","Overall Survival","Y","Y","F",0,"<65"
"SUBJ-0200","BENCHMARK-001",1,"Active",40.03,0,"OS","Overall Survival","Y","Y","M",0,"<65"
