"USUBJID","STUDYID","TRT01PN","TRT01P","BOR","ITTFL","SAFFL","SEX","AGEGR1","ECOG"
"SUBJ-0001","BENCHMARK-001",0,"Placebo","PR","Y","Y","M","<65",1
"SUBJ-0002","BENCHMARK-001",0,"Placebo","PD","Y","Y","M",">=65",0
"SUBJ-0003","BENCHMARK-001",0,"Placebo","PR","Y","Y","F","<65",1
"SUBJ-0004","BENCHMARK-001",0,"Placebo","SD","Y","Y","M",">=65",0
"SUBJ-0005","BENCHMARK-001",1,"Active","PR","Y","Y","F","<65",0
"SUBJ-0006","BENCHMARK-001",1,"Active","SD","Y","Y","M","<65",0
"SUBJ-0007","BENCHMARK-001",1,"Active","NE","Y","Y","F","<65",0
"SUBJ-0008","BENCHMARK-001",1,"Active","SD","Y","Y","M",">=65",1
"SUBJ-0009","BENCHMARK-001",0,"Placebo","SD","Y","Y","M","<65",0
"SUBJ-0010","BENCHMARK-001",1,"Active","PR","Y","Y","M","<65",1
"SUBJ-0011","BENCHMARK-001",0,"Placebo","PD","Y","Y","M","<65",0
"SUBJ-0012","BENCHMARK-001",1,"Active","SD","N","Y","F","<65",0
"SUBJ-0013","BENCHMARK-001",0,"Placebo","SD","Y","Y","M","<65",0
"SUBJ-0014","BENCHMARK-001",1,"Active","PR","Y","Y","F","<65",0
"SUBJ-0015","BENCHMARK-001",0,"Placebo","PD","Y","Y","M",">=65",0
"SUBJ-0016","BENCHMARK-001",0,"Placebo","PR","Y","Y","M","<65",1
"SUBJ-0017","BENCHMARK-001",1,"Active","SD","Y","Y","M","<65",0
"SUBJ-0018","BENCHMARK-001",1,"Active","SD","Y","Y","F","<65",0
"SUBJ-0019","BENCHMARK-001",1,"Active","SD","Y","Y","M","<65",1
"SUBJ-0020","BENCHMARK-001",1,"Active","CR","Y","Y","M",">=65",0
"SUBJ-0021","BENCHMARK-001",0,"Placebo","PD","Y","Y","M","<65",1
"SUBJ-0022","BENCHMARK-001",0,"Placebo","SD","Y","Y","M","<65",0
"SUBJ-0023","BENCHMARK-001",0,"Placebo","PD","Y","Y","F","<65",0
"SUBJ-0024","BENCHMARK-001",0,"Placebo","NE","Y","Y","F","<65",0
"SUBJ-0025","BENCHMARK-001",0,"Placebo","SD","N","Y","M",">=65",0
"SUBJ-0026","BENCHMARK-001",1,"Active","PD","Y","N","M","<65",0
"SUBJ-0027","BENCHMARK-001",0,"Placebo","SD","Y","Y","M",">=65",0
"SUBJ-0028","BENCHMARK-001",0,"Placebo","SD","Y","Y","M","<65",0
"SUBJ-0029","BENCHMARK-001",0,"Placebo","SD","Y","Y","F","<65",1
"SUBJ-0030","BENCHMARK-001",0,"Placebo","SD","Y","Y","M","<65",1
"SUBJ-0031","BENCHMARK-001",1,"Active","SD","Y","Y","M",">=65",1
"SUBJ-0032","BENCHMARK-001",1,"Active","PR","Y","Y","M","<65",0
"SUBJ-0033","BENCHMARK-001",1,"Active","PR","Y","Y","M","<65",0
"SUBJ-0034","BENCHMARK-001",1,"Active","PR","Y","Y","M","<65",0
"SUBJ-0035","BENCHMARK-001",0,"Placebo","CR","Y","Y","F",">=65",0
"SUBJ-0036","BENCHMARK-001",1,"Active","PD","Y","Y","M","<65",0
"SUBJ-0037","BENCHMARK-001",0,"Placebo","SD","Y","Y","M","<65",1
"SUBJ-0038","BENCHMARK-001",1,"Active","CR","Y","Y","M","<65",1
"SUBJ-0039","BENCHMARK-001",1,"Active","SD","Y","Y","M","<65",0
"SUBJ-0040","BENCHMARK-001",1,"Active","SD","Y","Y","M","<65",0
"SUBJ-0041","BENCHMARK-001",0,"Placebo","SD","Y","Y","F","<65",1
"SUBJ-0042","BENCHMARK-001",0,"Placebo","PD","Y","Y","F",">=65",0
"SUBJ-0043","BENCHMARK-001",1,"Active","PR","Y","Y","M","<65",0
"SUBJ-0044","BENCHMARK-001",1,"Active","PR","N","Y","F","<65",1
"SUBJ-0045","BENCHMARK-001",1,"Active","SD","Y","Y","M",">=65",1
"SUBJ-0046","BENCHMARK-001",1,"Active","SD","Y","Y","M","<65",0
"SUBJ-0047","BENCHMARK-001",1,"Active","PR","Y","Y","M",">=65",0
"SUBJ-0048","BENCHMARK-001",1,"Active","PR","Y","Y","F","<65",1
"SUBJ-0049","BENCHMARK-001",1,"Active","SD","Y","Y","F","<65",1
"SUBJ-0050","BENCHMARK-001",0,"Placebo","NE","Y","Y","M",">=65",0
"SUBJ-0051","BENCHMARK-001",1,"Active","PR","Y","Y","M",">=65",1
"SUBJ-0052","BENCHMARK-001",0,"Placebo","SD","Y","Y","M","<65",0
"SUBJ-0053","BENCHMARK-001",1,"Active","PR","Y","Y","F",">=65",0
"SUBJ-0054","BENCHMARK-001",1,"Active","SD","Y","Y","F","<65",1
"SUBJ-0055","BENCHMARK-001",1,"Active","PR","Y","Y","M","<65",0
"SUBJ-0056","BENCHMARK-001",1,"Active","PD","Y","Y","M",">=65",1
"SUBJ-0057","BENCHMARK-001",0,"Placebo","SD","Y","Y","M","<65",1
"SUBJ-0058","BENCHMARK-001",1,"Active","SD","Y","Y","F",">=65",0
"SUBJ-0059","BENCHMARK-001",0,"Placebo","PD","Y","Y","F","<65",0
"SUBJ-0060","BENCHMARK-001",0,"Placebo","PD","Y","Y","F","<65",0
"SUBJ-0061","BENCHMARK-001",0,"Placebo","PD","Y","Y","M","<65",0
"SUBJ-0062","BENCHMARK-001",1,"Active","PR","Y","Y","M","<65",1
"SUBJ-0063","BENCHMARK-001",1,"Active","PR","Y","Y","F","<65",0
"SUBJ-0064","BENCHMARK-001",1,"Active","NE","Y","Y","M","<65",0
"SUBJ-0065","BENCHMARK-001",1,"Active","SD","Y","Y","M","<65",0
"SUBJ-0066","BENCHMARK-001",1,"Active","PR","Y","Y","F","<65",1
"SUBJ-0067","BENCHMARK-001",1,"Active","CR","Y","Y","M",">=65",1
"SUBJ-0068","BENCHMARK-001",0,"Placebo","SD","Y","Y","M","<65",0
"SUBJ-0069","BENCHMARK-001",1,"Active","CR","Y","Y","M","<65",0
"SUBJ-0070","BENCHMARK-001",0,"Placebo","PR","Y","Y","F","<65",1
"SUBJ-0071","BENCHMARK-001",1,"Active","PR","Y","Y","M",">=65",0
"SUBJ-0072","BENCHMARK-001",0,"Placebo","PR","Y","Y","M","<65",0
"SUBJ-0073","BENCHMARK-001",1,"Active","SD","Y","Y","F",">=65",0
"SUBJ-0074","BENCHMARK-001",1,"Active","PR","Y","Y","F","<65",1
"SUBJ-0075","BENCHMARK-001",1,"Active","CR","Y","Y","M",">=65",0
"SUBJ-0076","BENCHMARK-001",1,"Active","PR","Y","Y","M","<65",1
"SUBJ-0077","BENCHMARK-001",0,"Placebo","SD","Y","Y","F","<65",1
"SUBJ-0078","BENCHMARK-001",0,"Placebo","SD","Y","Y","F","<65",0
"SUBJ-0079","BENCHMARK-001",0,"Placebo","PD","Y","Y","M","<65",0
"SUBJ-0080","BENCHMARK-001",0,"Placebo","SD","Y","Y","F",">=65",0
"SUBJ-0081","BENCHMARK-001",1,"Active","SD","Y","Y","M",">=65",0
"SUBJ-0082","BENCHMARK-001",0,"Placebo","SD","Y","N","F","<65",1
"SUBJ-0083","BENCHMARK-001",1,"Active","PR","Y","Y","F","<65",0
"SUBJ-0084","BENCHMARK-001",0,"Placebo","CR","Y","Y","M",">=65",1
"SUBJ-0085","BENCHMARK-001",0,"Placebo","SD","Y","Y","F","<65",1
"SUBJ-0086","BENCHMARK-001",1,"Active","PR","Y","Y","M","<65",0
"SUBJ-0087","BENCHMARK-001",1,"Active","SD","Y","Y","F","<65",1
"SUBJ-0088","BENCHMARK-001",0,"Placebo","SD","Y","Y","M",">=65",0
"SUBJ-0089","BENCHMARK-001",0,"Placebo","SD","Y","Y","M",">=65",1
"SUBJ-0090","BENCHMARK-001",0,"Placebo","SD","Y","Y","M",">=65",0
"SUBJ-0091","BENCHMARK-001",0,"Placebo","PR","Y","Y","F","<65",1
"SUBJ-0092","BENCHMARK-001",1,"Active","PD","Y","Y","M","<65",0
"SUBJ-0093","BENCHMARK-001",0,"Placebo","SD","Y","Y","F","<65",1
"SUBJ-0094","BENCHMARK-001",1,"Active","SD","Y","Y","M","<65",0
"SUBJ-0095","BENCHMARK-001",1,"Active","PR","Y","Y","M","<65",0
"SUBJ-0096","BENCHMARK-001",1,"Active","PR","Y","Y","M",">=65",0
"SUBJ-0097","BENCHMARK-001",0,"Placebo","PR","Y","Y","F","<65",0
"SUBJ-0098","BENCHMARK-001",1,"Active","SD","Y","Y","M","<65",0
"SUBJ-0099","BENCHMARK-001",1,"Active","PR","Y","Y","M","<65",1
"SUBJ-0100","BENCHMARK-001",1,"Active","PR","Y","Y","M",">=65",0
"SUBJ-0101","BENCHMARK-001",1,"Active","SD","Y","Y","M",">=65",0
"SUBJ-0102","BENCHMARK-001",1,"Active","SD","N","Y","M","<65",1
"SUBJ-0103","BENCHMARK-001",0,"Placebo","SD","Y","Y","M","<65",1
"SUBJ-0104","BENCHMARK-001",1,"Active","PR","Y","Y","F","<65",0
"SUBJ-0105","BENCHMARK-001",0,"Placebo","PR","Y","Y","M","<65",0
"SUBJ-0106","BENCHMARK-001",1,"Active","NE","Y","Y","F","<65",1
"SUBJ-0107","BENCHMARK-001",1,"Active","SD","Y","Y","F","<65",1
"SUBJ-0108","BENCHMARK-001",0,"Placebo","SD","Y","Y","M",">=65",0
"SUBJ-0109","BENCHMARK-001",1,"Active","PR","Y","Y","F",">=65",1
"SUBJ-0110","BENCHMARK-001",0,"Placebo","SD","Y","Y","M","<65",1
"SUBJ-0111","BENCHMARK-001",1,"Active","PR","Y","Y","M","<65",1
"SUBJ-0112","BENCHMARK-001",0,"Placebo","NE","Y","Y","F","<65",0
"SUBJ-0113","BENCHMARK-001",1,"Active","SD","Y","Y","M","<65",1
"SUBJ-0114","BENCHMARK-001",0,"Placebo","SD","Y","Y","M","<65",1
"SUBJ-0115","BENCHMARK-001",1,"Active","PR","Y","Y","M","<65",0
"SUBJ-0116","BENCHMARK-001",1,"Active","NE","Y","Y","M","<65",0
"SUBJ-0117","BENCHMARK-001",0,"Placebo","SD","Y","Y","M","<65",1
"SUBJ-0118","BENCHMARK-001",0,"Placebo","PD","Y","Y","M","<65",1
"SUBJ-0119","BENCHMARK-001",0,"Placebo","PR","Y","Y","M","<65",0
"SUBJ-0120","BENCHMARK-001",1,"Active","NE","Y","Y","F",">=65",1
"SUBJ-0121","BENCHMARK-001",0,"Placebo","SD","Y","Y","F",">=65",1
"SUBJ-0122","BENCHMARK-001",1,"Active","SD","Y","Y","F","<65",1
"SUBJ-0123","BENCHMARK-001",1,"Active","PR","Y","Y","F","<65",0
"SUBJ-0124","BENCHMARK-001",1,"Active","PR","Y","Y","M","<65",0
"SUBJ-0125","BENCHMARK-001",1,"Active","SD","Y","Y","F",">=65",1
"SUBJ-0126","BENCHMARK-001",0,"Placebo","NE","Y","Y","F","<65",1
"SUBJ-0127","BENCHMARK-001",0,"Placebo","SD","Y","Y","M","<65",0
"SUBJ-0128","BENCHMARK-001",1,"Active","PD","Y","Y","F","<65",1
"SUBJ-0129","BENCHMARK-001",0,"Placebo","PD","Y","Y","M","<65",0
"SUBJ-0130","BENCHMARK-001",0,"Placebo","PR","Y","Y","M","<65",0
"SUBJ-0131","BENCHMARK-001",0,"Placebo","PR","Y","Y","F",">=65",0
"SUBJ-0132","BENCHMARK-001",1,"Active","PR","Y","Y","M","<65",1
"SUBJ-0133","BENCHMARK-001",0,"Placebo","SD","Y","Y","F","<65",1
"SUBJ-0134","BENCHMARK-001",0,"Placebo","SD","Y","Y","F","<65",0
"SUBJ-0135","BENCHMARK-001",1,"Active","SD","Y","Y","M","<65",0
"SUBJ-0136","BENCHMARK-001",1,"Active","SD","Y","Y","M",">=65",0
"SUBJ-0137","BENCHMARK-001",1,"Active","SD","Y","Y","M","<65",0
"SUBJ-0138","BENCHMARK-001",0,"Placebo","SD","Y","Y","M","<65",0
"SUBJ-0139","BENCHMARK-001",0,"Placebo","PR","Y","Y","M","<65",0
"SUBJ-0140","BENCHMARK-001",1,"Active","PR","Y","Y","M",">=65",0
"SUBJ-0141","BENCHMARK-001",0,"Placebo","SD","Y","Y","F",">=65",0
"SUBJ-0142","BENCHMARK-001",0,"Placebo","SD","Y","Y","F","<65",1
"SUBJ-0143","BENCHMARK-001",1,"Active","PD","Y","Y","M",">=65",0
"SUBJ-0144","BENCHMARK-001",0,"Placebo","SD","Y","Y","M","<65",1
"SUBJ-0145","BENCHMARK-001",0,"Placebo","SD","Y","Y","F",">=65",0
"SUBJ-0146","BENCHMARK-001",0,"Placebo","SD","Y","Y","F","<65",0
"SUBJ-0147","BENCHMARK-001",1,"Active","NE","Y","Y","F","<65",0
"SUBJ-0148","BENCHMARK-001",1,"Active","SD","Y","Y","M","<65",0
"SUBJ-0149","BENCHMARK-001",0,"Placebo","PR","Y","Y","M","<65",0
"SUBJ-0150","BENCHMARK-001",1,"Active","CR","Y","Y","M",">=65",0
"SUBJ-0151","BENCHMARK-001",1,"Active","SD","Y","Y","F","<65",1
"SUBJ-0152","BENCHMARK-001",1,"Active","SD","Y","Y","M","<65",0
"SUBJ-0153","BENCHMARK-001",0,"Placebo","SD","Y","Y","F","<65",1
"SUBJ-0154","BENCHMARK-001",0,"Placebo","SD","Y","Y","M","<65",1
"SUBJ-0155","BENCHMARK-001",0,"Placebo","PD","Y","Y","M","<65",0
"SUBJ-0156","BENCHMARK-001",0,"Placebo","PD","Y","Y","M","<65",1
"SUBJ-0157","BENCHMARK-001",0,"Placebo","PD","Y","Y","F",">=65",0
"SUBJ-0158","BENCHMARK-001",0,"Placebo","NE","Y","Y","M",">=65",0
"SUBJ-0159","BENCHMARK-001",0,"Placebo","PD","Y","Y","F",">=65",1
"SUBJ-0160","BENCHMARK-001",1,"Active","SD","Y","Y","F","<65",0
"SUBJ-0161","BENCHMARK-001",0,"Placebo","PD","Y","Y","F",">=65",0
"SUBJ-0162","BENCHMARK-001",1,"Active","SD","Y","N","M",">=65",0
"SUBJ-0163","BENCHMARK-001",1,"Active","PR","Y","Y","M","<65",0
"SUBJ-0164","BENCHMARK-001",0,"Placebo","NE","Y","Y","M","<65",0
"SUBJ-0165","BENCHMARK-001",1,"Active","SD","Y","Y","M","<65",0
"SUBJ-0166","BENCHMARK-001",1,"Active","SD","Y","Y","M","<65",0
"SUBJ-0167","BENCHMARK-001",0,"Placebo","PD","Y","Y","F",">=65",0
"SUBJ-0168","BENCHMARK-001",0,"Placebo","PR","Y","N","M",">=65",0
"SUBJ-0169","BENCHMARK-001",1,"Active","SD","Y","Y","M","<65",1
"SUBJ-0170","BENCHMARK-001",0,"Placebo","SD","Y","Y","F","<65",0
"SUBJ-0171","BENCHMARK-001",1,"Active","PR","Y","Y","F","<65",0
"SUBJ-0172","BENCHMARK-001",0,"Placebo","SD","Y","Y","M","<65",1
"SUBJ-0173","BENCHMARK-001",1,"Active","PD","Y","Y","F",">=65",1
"SUBJ-0174","BENCHMARK-001",1,"Active","PR","Y","Y","M","<65",1
"SUBJ-0175","BENCHMARK-001",0,"Placebo","PD","Y","Y","M","<65",0
"SUBJ-0176","BENCHMARK-001",1,"Active","NE","Y","Y","F","<65",0
"SUBJ-0177","BENCHMARK-001",0,"Placebo","SD","Y","Y","M","<65",0
"SUBJ-0178","BENCHMARK-001",1,"Active","PR","Y","Y","M","<65",1
"SUBJ-0179","BENCHMARK-001",1,"Active","PR","Y","Y","F","<65",0
"SUBJ-0180","BENCHMARK-001",1,"Active","PD","N","Y","F","<65",1
"SUBJ-0181","BENCHMARK-001",1,"Active","SD","Y","Y","M","<65",0
"SUBJ-0182","BENCHMARK-001",1,"Active","SD","Y","Y","F","<65",0
"SUBJ-0183","BENCHMARK-001",1,"Active","SD","Y","Y","F","<65",0
"SUBJ-0184","BENCHMARK-001",0,"Placebo","SD","Y","Y","F","<65",0
"SUBJ-0185","BENCHMARK-001",1,"Active","SD","Y","Y","M",">=65",1
"SUBJ-0186","BENCHMARK-001",1,"Active","PD","Y","Y","M","<65",1
"SUBJ-0187","BENCHMARK-001",1,"Active","PR","Y","Y","F","<65",0
"SUBJ-0188","BENCHMARK-001",0,"Placebo","NE","Y","Y","F","<65",0
"SUBJ-0189","BENCHMARK-001",1,"Active","PR","Y","Y","M","<65",0
"SUBJ-0190","BENCHMARK-001",1,"Active","PR","Y","Y","F",">=65",1
"SUBJ-0191","BENCHMARK-001",0,"Placebo","PR","Y","Y","M","<65",0
"SUBJ-0192","BENCHMARK-001",1,"Active","SD","Y","Y","F","<65",1
"SUBJ-0193","BENCHMARK-001",1,"Active","SD","Y","Y","M","<65",0
"SUBJ-0194","BENCHMARK-001",1,"Active","PR","Y","Y","F",">=65",0
"SUBJ-0195","BENCHMARK-001",1,"Active","PD","Y","Y","F","<65",1
"SUBJ-0196","BENCHMARK-001",1,"Active","SD","Y","Y","M",">=65",1
"SUBJ-0197","BENCHMARK-001",0,"Placebo","NE","Y","Y","M",">=65",0
"SUBJ-0198","BENCHMARK-001",0,"Placebo","PR","Y","Y","M","<65",0
"SUBJ-0199","BENCHMARK-001",1,"Active","SD","Y","Y","M","<65",1
"SUBJ-0200","BENCHMARK-001",1,"Active","PR","Y","Y","M","<65",0
