"USUBJID","STUDYID","TRT01PN","TRT01P","AVAL","CNSR","PARAMCD","PARAM","ITTFL","SAFFL","SEX","ECOG","BOR","IS_RESPONDER","TIME_TO_RESPONSE"
"SUBJ-0001","BENCHMARK-001",0,"Placebo",NA,1,"DOR","Duration of Response","Y","Y","Female",1,"CR",1,7.84
"SUBJ-0002","BENCHMARK-001",0,"Placebo",NA,NA,"DOR","Duration of Response","Y","Y","Male",1,"PD",0,NA
"SUBJ-0003","BENCHMARK-001",0,"Placebo",5.74,0,"DOR","Duration of Response","Y","Y","Female",0,"CR",1,0.52
"SUBJ-0004","BENCHMARK-001",0,"Placebo",NA,NA,"DOR","Duration of Response","Y","Y","Female",1,"SD",0,NA
"SUBJ-0005","BENCHMARK-001",1,"Active",NA,NA,"DOR","Duration of Response","Y","Y","Female",1,"PD",0,NA
"SUBJ-0006","BENCHMARK-001",1,"Active",NA,NA,"DOR","Duration of Response","Y","Y","Male",1,"PD",0,NA
"SUBJ-0007","BENCHMARK-001",1,"Active",NA,1,"DOR","Duration of Response","Y","Y","Male",1,"PR",1,4.86
"SUBJ-0008","BENCHMARK-001",1,"Active",NA,NA,"DOR","Duration of Response","Y","Y","Male",0,"PD",0,NA
"SUBJ-0009","BENCHMARK-001",0,"Placebo",NA,NA,"DOR","Duration of Response","Y","Y","Female",0,"PD",0,NA
"SUBJ-0010","BENCHMARK-001",1,"Active",NA,NA,"DOR","Duration of Response","Y","Y","Male",0,"SD",0,NA
"SUBJ-0011","BENCHMARK-001",0,"Placebo",NA,NA,"DOR","Duration of Response","Y","Y","Female",0,"SD",0,NA
"SUBJ-0012","BENCHMARK-001",1,"Active",1.39,0,"DOR","Duration of Response","Y","Y","Female",0,"CR",1,1.11
"SUBJ-0013","BENCHMARK-001",0,"Placebo",NA,NA,"DOR","Duration of Response","Y","Y","Female",0,"PD",0,NA
"SUBJ-0014","BENCHMARK-001",1,"Active",NA,NA,"DOR","Duration of Response","Y","Y","Male",0,"SD",0,NA
"SUBJ-0015","BENCHMARK-001",0,"Placebo",NA,NA,"DOR","Duration of Response","Y","Y","Male",0,"PD",0,NA
"SUBJ-0016","BENCHMARK-001",0,"Placebo",0.73,1,"DOR","Duration of Response","Y","Y","Female",1,"CR",1,4.47
"SUBJ-0017","BENCHMARK-001",1,"Active",NA,NA,"DOR","Duration of Response","Y","Y","Female",0,"SD",0,NA
"SUBJ-0018","BENCHMARK-001",1,"Active",NA,NA,"DOR","Duration of Response","Y","Y","Female",0,"PD",0,NA
"SUBJ-0019","BENCHMARK-001",1,"Active",NA,NA,"DOR","Duration of Response","N","Y","Female",0,"PD",0,NA
"SUBJ-0020","BENCHMARK-001",1,"Active",5.85,0,"DOR","Duration of Response","Y","Y","Male",0,"CR",1,0.18
"SUBJ-0021","BENCHMARK-001",0,"Placebo",NA,NA,"DOR","Duration of Response","Y","Y","Female",0,"SD",0,NA
"SUBJ-0022","BENCHMARK-001",0,"Placebo",NA,NA,"DOR","Duration of Response","Y","Y","Female",0,"PD",0,NA
"SUBJ-0023","BENCHMARK-001",0,"Placebo",NA,NA,"DOR","Duration of Response","Y","Y","Female",0,"SD",0,NA
"SUBJ-0024","BENCHMARK-001",0,"Placebo",0.39,0,"DOR","Duration of Response","Y","Y","Female",0,"PR",1,2.91
"SUBJ-0025","BENCHMARK-001",0,"Placebo",NA,NA,"DOR","Duration of Response","Y","Y","Male",0,"SD",0,NA
"SUBJ-0026","BENCHMARK-001",1,"Active",6.07,1,"DOR","Duration of Response","Y","Y","Female",0,"PR",1,0.5
"SUBJ-0027","BENCHMARK-001",0,"Placebo",NA,NA,"DOR","Duration of Response","Y","Y","Female",1,"SD",0,NA
"SUBJ-0028","BENCHMARK-001",0,"Placebo",NA,NA,"DOR","Duration of Response","Y","Y","Male",1,"PD",0,NA
"SUBJ-0029","BENCHMARK-001",0,"Placebo",NA,NA,"DOR","Duration of Response","Y","Y","Male",1,"PD",0,NA
"SUBJ-0030","BENCHMARK-001",0,"Placebo",NA,NA,"DOR","Duration of Response","Y","Y","Male",1,"PD",0,NA
"SUBJ-0031","BENCHMARK-001",1,"Active",NA,NA,"DOR","Duration of Response","Y","Y","Female",1,"PD",0,NA
"SUBJ-0032","BENCHMARK-001",1,"Active",NA,NA,"DOR","Duration of Response","Y","Y","Male",1,"PD",0,NA
"SUBJ-0033","BENCHMARK-001",1,"Active",NA,NA,"DOR","Duration of Response","Y","Y","Female",1,"SD",0,NA
"SUBJ-0034","BENCHMARK-001",1,"Active",NA,NA,"DOR","Duration of Response","Y","Y","Female",0,"SD",0,NA
"SUBJ-0035","BENCHMARK-001",0,"Placebo",12.75,0,"DOR","Duration of Response","Y","Y","Male",0,"PR",1,0.69
"SUBJ-0036","BENCHMARK-001",1,"Active",1.15,1,"DOR","Duration of Response","Y","Y","Male",1,"PR",1,0.54
"SUBJ-0037","BENCHMARK-001",0,"Placebo",NA,NA,"DOR","Duration of Response","Y","Y","Male",1,"SD",0,NA
"SUBJ-0038","BENCHMARK-001",1,"Active",0.23,0,"DOR","Duration of Response","Y","Y","Female",0,"CR",1,1.31
"SUBJ-0039","BENCHMARK-001",1,"Active",NA,NA,"DOR","Duration of Response","Y","Y","Male",0,"PD",0,NA
"SUBJ-0040","BENCHMARK-001",1,"Active",NA,NA,"DOR","Duration of Response","Y","Y","Male",1,"SD",0,NA
"SUBJ-0041","BENCHMARK-001",0,"Placebo",NA,NA,"DOR","Duration of Response","Y","Y","Male",0,"SD",0,NA
"SUBJ-0042","BENCHMARK-001",0,"Placebo",NA,NA,"DOR","Duration of Response","Y","Y","Female",1,"PD",0,NA
"SUBJ-0043","BENCHMARK-001",1,"Active",NA,NA,"DOR","Duration of Response","Y","Y","Female",1,"PD",0,NA
"SUBJ-0044","BENCHMARK-001",1,"Active",NA,NA,"DOR","Duration of Response","Y","Y","Female",1,"PD",0,NA
"SUBJ-0045","BENCHMARK-001",1,"Active",NA,NA,"DOR","Duration of Response","Y","Y","Male",1,"PD",0,NA
"SUBJ-0046","BENCHMARK-001",1,"Active",NA,NA,"DOR","Duration of Response","Y","Y","Female",1,"SD",0,NA
"SUBJ-0047","BENCHMARK-001",1,"Active",NA,NA,"DOR","Duration of Response","Y","Y","Female",0,"SD",0,NA
"SUBJ-0048","BENCHMARK-001",1,"Active",NA,NA,"DOR","Duration of Response","Y","Y","Male",0,"PD",0,NA
"SUBJ-0049","BENCHMARK-001",1,"Active",NA,NA,"DOR","Duration of Response","Y","Y","Female",0,"SD",0,NA
"SUBJ-0050","BENCHMARK-001",0,"Placebo",2.18,1,"DOR","Duration of Response","Y","Y","Female",1,"CR",1,0.62
"SUBJ-0051","BENCHMARK-001",1,"Active",NA,NA,"DOR","Duration of Response","Y","Y","Female",1,"SD",0,NA
"SUBJ-0052","BENCHMARK-001",0,"Placebo",NA,NA,"DOR","Duration of Response","Y","Y","Male",1,"SD",0,NA
"SUBJ-0053","BENCHMARK-001",1,"Active",NA,NA,"DOR","Duration of Response","Y","Y","Female",1,"SD",0,NA
"SUBJ-0054","BENCHMARK-001",1,"Active",NA,NA,"DOR","Duration of Response","Y","Y","Female",0,"SD",0,NA
"SUBJ-0055","BENCHMARK-001",1,"Active",NA,NA,"DOR","Duration of Response","Y","Y","Male",1,"PD",0,NA
"SUBJ-0056","BENCHMARK-001",1,"Active",3.19,1,"DOR","Duration of Response","Y","Y","Female",1,"PR",1,3.42
"SUBJ-0057","BENCHMARK-001",0,"Placebo",NA,NA,"DOR","Duration of Response","Y","Y","Male",1,"PD",0,NA
"SUBJ-0058","BENCHMARK-001",1,"Active",NA,NA,"DOR","Duration of Response","Y","Y","Female",0,"PD",0,NA
"SUBJ-0059","BENCHMARK-001",0,"Placebo",NA,NA,"DOR","Duration of Response","Y","Y","Female",0,"PD",0,NA
"SUBJ-0060","BENCHMARK-001",0,"Placebo",NA,NA,"DOR","Duration of Response","N","Y","Male",0,"SD",0,NA
"SUBJ-0061","BENCHMARK-001",0,"Placebo",NA,NA,"DOR","Duration of Response","Y","Y","Female",1,"PD",0,NA
"SUBJ-0062","BENCHMARK-001",1,"Active",NA,NA,"DOR","Duration of Response","Y","Y","Female",1,"SD",0,NA
"SUBJ-0063","BENCHMARK-001",1,"Active",NA,NA,"DOR","Duration of Response","Y","N","Male",1,"PD",0,NA
"SUBJ-0064","BENCHMARK-001",1,"Active",0.7,0,"DOR","Duration of Response","Y","Y","Female",1,"PR",1,0.21
"SUBJ-0065","BENCHMARK-001",1,"Active",NA,NA,"DOR","Duration of Response","Y","Y","Male",0,"SD",0,NA
"SUBJ-0066","BENCHMARK-001",1,"Active",NA,NA,"DOR","Duration of Response","Y","Y","Male",0,"SD",0,NA
"SUBJ-0067","BENCHMARK-001",1,"Active",NA,1,"DOR","Duration of Response","N","Y","Female",0,"PR",1,2.06
"SUBJ-0068","BENCHMARK-001",0,"Placebo",NA,NA,"DOR","Duration of Response","Y","Y","Male",0,"PD",0,NA
"SUBJ-0069","BENCHMARK-001",1,"Active",18.78,0,"DOR","Duration of Response","Y","Y","Male",1,"PR",1,1.52
"SUBJ-0070","BENCHMARK-001",0,"Placebo",NA,1,"DOR","Duration of Response","Y","Y","Female",1,"PR",1,2.19
"SUBJ-0071","BENCHMARK-001",1,"Active",NA,NA,"DOR","Duration of Response","Y","Y","Male",1,"SD",0,NA
"SUBJ-0072","BENCHMARK-001",0,"Placebo",NA,NA,"DOR","Duration of Response","Y","Y","Female",0,"SD",0,NA
"SUBJ-0073","BENCHMARK-001",1,"Active",NA,NA,"DOR","Duration of Response","Y","Y","Male",1,"PD",0,NA
"SUBJ-0074","BENCHMARK-001",1,"Active",NA,NA,"DOR","Duration of Response","Y","Y","Female",1,"PD",0,NA
"SUBJ-0075","BENCHMARK-001",1,"Active",2.72,0,"DOR","Duration of Response","Y","Y","Male",0,"CR",1,0.76
"SUBJ-0076","BENCHMARK-001",1,"Active",NA,NA,"DOR","Duration of Response","Y","Y","Female",0,"SD",0,NA
"SUBJ-0077","BENCHMARK-001",0,"Placebo",NA,NA,"DOR","Duration of Response","Y","Y","Female",0,"PD",0,NA
"SUBJ-0078","BENCHMARK-001",0,"Placebo",NA,NA,"DOR","Duration of Response","Y","Y","Male",1,"PD",0,NA
"SUBJ-0079","BENCHMARK-001",0,"Placebo",NA,NA,"DOR","Duration of Response","Y","Y","Male",1,"PD",0,NA
"SUBJ-0080","BENCHMARK-001",0,"Placebo",NA,NA,"DOR","Duration of Response","Y","Y","Male",0,"PD",0,NA
"SUBJ-0081","BENCHMARK-001",1,"Active",NA,NA,"DOR","Duration of Response","Y","Y","Female",0,"PD",0,NA
"SUBJ-0082","BENCHMARK-001",0,"Placebo",NA,NA,"DOR","Duration of Response","N","Y","Male",0,"PD",0,NA
"SUBJ-0083","BENCHMARK-001",1,"Active",NA,NA,"DOR","Duration of Response","Y","Y","Male",1,"PD",0,NA
"SUBJ-0084","BENCHMARK-001",0,"Placebo",19.66,1,"DOR","Duration of Response","N","Y","Male",1,"PR",1,0.07
"SUBJ-0085","BENCHMARK-001",0,"Placebo",NA,NA,"DOR","Duration of Response","Y","Y","Male",1,"PD",0,NA
"SUBJ-0086","BENCHMARK-001",1,"Active",NA,NA,"DOR","Duration of Response","Y","Y","Male",0,"PD",0,NA
"SUBJ-0087","BENCHMARK-001",1,"Active",NA,NA,"DOR","Duration of Response","Y","Y","Female",1,"SD",0,NA
"SUBJ-0088","BENCHMARK-001",0,"Placebo",NA,NA,"DOR","Duration of Response","Y","Y","Female",1,"PD",0,NA
"SUBJ-0089","BENCHMARK-001",0,"Placebo",NA,NA,"DOR","Duration of Response","N","Y","Male",1,"PD",0,NA
"SUBJ-0090","BENCHMARK-001",0,"Placebo",NA,NA,"DOR","Duration of Response","Y","Y","Female",0,"SD",0,NA
"SUBJ-0091","BENCHMARK-001",0,"Placebo",2.32,0,"DOR","Duration of Response","Y","Y","Male",0,"PR",1,2.97
"SUBJ-0092","BENCHMARK-001",1,"Active",5.06,0,"DOR","Duration of Response","Y","Y","Female",0,"PR",1,4.29
"SUBJ-0093","BENCHMARK-001",0,"Placebo",NA,NA,"DOR","Duration of Response","Y","Y","Female",1,"SD",0,NA
"SUBJ-0094","BENCHMARK-001",1,"Active",NA,NA,"DOR","Duration of Response","Y","Y","Female",0,"PD",0,NA
"SUBJ-0095","BENCHMARK-001",1,"Active",NA,NA,"DOR","Duration of Response","Y","Y","Female",0,"PD",0,NA
"SUBJ-0096","BENCHMARK-001",1,"Active",NA,NA,"DOR","Duration of Response","Y","Y","Male",0,"PD",0,NA
"SUBJ-0097","BENCHMARK-001",0,"Placebo",NA,NA,"DOR","Duration of Response","Y","Y","Female",0,"SD",0,NA
"SUBJ-0098","BENCHMARK-001",1,"Active",16.45,0,"DOR","Duration of Response","Y","Y","Female",1,"PR",1,1.66
"SUBJ-0099","BENCHMARK-001",1,"Active",NA,NA,"DOR","Duration of Response","Y","Y","Female",0,"PD",0,NA
"SUBJ-0100","BENCHMARK-001",1,"Active",NA,NA,"DOR","Duration of Response","Y","Y","Male",0,"SD",0,NA
"SUBJ-0101","BENCHMARK-001",1,"Active",NA,NA,"DOR","Duration of Response","Y","Y","Male",0,"SD",0,NA
"SUBJ-0102","BENCHMARK-001",1,"Active",NA,NA,"DOR","Duration of Response","N","Y","Male",0,"SD",0,NA
"SUBJ-0103","BENCHMARK-001",0,"Placebo",NA,NA,"DOR","Duration of Response","Y","Y","Female",1,"PD",0,NA
"SUBJ-0104","BENCHMARK-001",1,"Active",NA,NA,"DOR","Duration of Response","Y","Y","Male",1,"SD",0,NA
"SUBJ-0105","BENCHMARK-001",0,"Placebo",15.93,0,"DOR","Duration of Response","Y","Y","Female",1,"CR",1,4.04
"SUBJ-0106","BENCHMARK-001",1,"Active",6.1,0,"DOR","Duration of Response","N","Y","Male",0,"PR",1,0
"SUBJ-0107","BENCHMARK-001",1,"Active",NA,NA,"DOR","Duration of Response","Y","Y","Female",0,"SD",0,NA
"SUBJ-0108","BENCHMARK-001",0,"Placebo",NA,NA,"DOR","Duration of Response","Y","Y","Male",0,"PD",0,NA
"SUBJ-0109","BENCHMARK-001",1,"Active",NA,NA,"DOR","Duration of Response","Y","Y","Female",0,"PD",0,NA
"SUBJ-0110","BENCHMARK-001",0,"Placebo",NA,NA,"DOR","Duration of Response","Y","Y","Male",0,"PD",0,NA
"SUBJ-0111","BENCHMARK-001",1,"Active",NA,NA,"DOR","Duration of Response","Y","Y","Male",1,"SD",0,NA
"SUBJ-0112","BENCHMARK-001",0,"Placebo",7.09,0,"DOR","Duration of Response","Y","Y","Male",0,"CR",1,1.83
"SUBJ-0113","BENCHMARK-001",1,"Active",NA,NA,"DOR","Duration of Response","Y","Y","Male",1,"PD",0,NA
"SUBJ-0114","BENCHMARK-001",0,"Placebo",NA,NA,"DOR","Duration of Response","Y","Y","Female",0,"PD",0,NA
"SUBJ-0115","BENCHMARK-001",1,"Active",NA,NA,"DOR","Duration of Response","Y","Y","Female",0,"PD",0,NA
"SUBJ-0116","BENCHMARK-001",1,"Active",7.56,1,"DOR","Duration of Response","Y","Y","Male",1,"CR",1,1.78
"SUBJ-0117","BENCHMARK-001",0,"Placebo",NA,NA,"DOR","Duration of Response","Y","Y","Female",1,"PD",0,NA
"SUBJ-0118","BENCHMARK-001",0,"Placebo",NA,NA,"DOR","Duration of Response","Y","Y","Female",1,"SD",0,NA
"SUBJ-0119","BENCHMARK-001",0,"Placebo",1.17,1,"DOR","Duration of Response","Y","Y","Male",0,"PR",1,0.06
"SUBJ-0120","BENCHMARK-001",1,"Active",4.3,0,"DOR","Duration of Response","Y","Y","Female",1,"PR",1,1.61
"SUBJ-0121","BENCHMARK-001",0,"Placebo",NA,NA,"DOR","Duration of Response","Y","Y","Male",0,"PD",0,NA
"SUBJ-0122","BENCHMARK-001",1,"Active",NA,NA,"DOR","Duration of Response","Y","Y","Male",0,"PD",0,NA
"SUBJ-0123","BENCHMARK-001",1,"Active",NA,NA,"DOR","Duration of Response","Y","Y","Male",0,"PD",0,NA
"SUBJ-0124","BENCHMARK-001",1,"Active",NA,NA,"DOR","Duration of Response","Y","Y","Male",0,"SD",0,NA
"SUBJ-0125","BENCHMARK-001",1,"Active",NA,NA,"DOR","Duration of Response","Y","Y","Male",0,"PD",0,NA
"SUBJ-0126","BENCHMARK-001",0,"Placebo",7.99,0,"DOR","Duration of Response","Y","Y","Male",1,"PR",1,0.15
"SUBJ-0127","BENCHMARK-001",0,"Placebo",NA,NA,"DOR","Duration of Response","Y","Y","Female",1,"PD",0,NA
"SUBJ-0128","BENCHMARK-001",1,"Active",NA,1,"DOR","Duration of Response","Y","Y","Male",1,"CR",1,2.98
"SUBJ-0129","BENCHMARK-001",0,"Placebo",NA,NA,"DOR","Duration of Response","Y","Y","Male",0,"PD",0,NA
"SUBJ-0130","BENCHMARK-001",0,"Placebo",NA,NA,"DOR","Duration of Response","Y","Y","Male",0,"SD",0,NA
"SUBJ-0131","BENCHMARK-001",0,"Placebo",3.19,0,"DOR","Duration of Response","Y","Y","Male",0,"CR",1,2.04
"SUBJ-0132","BENCHMARK-001",1,"Active",NA,NA,"DOR","Duration of Response","Y","Y","Male",0,"PD",0,NA
"SUBJ-0133","BENCHMARK-001",0,"Placebo",NA,NA,"DOR","Duration of Response","Y","Y","Male",0,"PD",0,NA
"SUBJ-0134","BENCHMARK-001",0,"Placebo",NA,NA,"DOR","Duration of Response","Y","Y","Male",1,"PD",0,NA
"SUBJ-0135","BENCHMARK-001",1,"Active",2.92,0,"DOR","Duration of Response","Y","N","Female",0,"PR",1,0.85
"SUBJ-0136","BENCHMARK-001",1,"Active",NA,NA,"DOR","Duration of Response","N","Y","Male",0,"PD",0,NA
"SUBJ-0137","BENCHMARK-001",1,"Active",NA,NA,"DOR","Duration of Response","Y","Y","Female",1,"SD",0,NA
"SUBJ-0138","BENCHMARK-001",0,"Placebo",NA,NA,"DOR","Duration of Response","Y","Y","Female",1,"SD",0,NA
"SUBJ-0139","BENCHMARK-001",0,"Placebo",NA,1,"DOR","Duration of Response","Y","Y","Female",1,"PR",1,4.96
"SUBJ-0140","BENCHMARK-001",1,"Active",NA,NA,"DOR","Duration of Response","Y","Y","Female",1,"PD",0,NA
"SUBJ-0141","BENCHMARK-001",0,"Placebo",NA,NA,"DOR","Duration of Response","Y","Y","Female",1,"PD",0,NA
"SUBJ-0142","BENCHMARK-001",0,"Placebo",NA,NA,"DOR","Duration of Response","Y","Y","Male",0,"SD",0,NA
"SUBJ-0143","BENCHMARK-001",1,"Active",13.11,0,"DOR","Duration of Response","Y","Y","Male",0,"CR",1,0.71
"SUBJ-0144","BENCHMARK-001",0,"Placebo",NA,NA,"DOR","Duration of Response","Y","Y","Female",0,"PD",0,NA
"SUBJ-0145","BENCHMARK-001",0,"Placebo",NA,NA,"DOR","Duration of Response","Y","Y","Female",0,"SD",0,NA
"SUBJ-0146","BENCHMARK-001",0,"Placebo",NA,NA,"DOR","Duration of Response","N","Y","Female",1,"PD",0,NA
"SUBJ-0147","BENCHMARK-001",1,"Active",3.24,0,"DOR","Duration of Response","Y","Y","Female",0,"CR",1,3.55
"SUBJ-0148","BENCHMARK-001",1,"Active",NA,NA,"DOR","Duration of Response","Y","Y","Male",1,"PD",0,NA
"SUBJ-0149","BENCHMARK-001",0,"Placebo",7.67,0,"DOR","Duration of Response","Y","Y","Male",0,"CR",1,1.5
"SUBJ-0150","BENCHMARK-001",1,"Active",6.35,0,"DOR","Duration of Response","Y","Y","Female",0,"PR",1,2.54
"SUBJ-0151","BENCHMARK-001",1,"Active",NA,NA,"DOR","Duration of Response","Y","Y","Male",1,"PD",0,NA
"SUBJ-0152","BENCHMARK-001",1,"Active",NA,NA,"DOR","Duration of Response","Y","Y","Male",0,"PD",0,NA
"SUBJ-0153","BENCHMARK-001",0,"Placebo",NA,NA,"DOR","Duration of Response","Y","Y","Male",0,"SD",0,NA
"SUBJ-0154","BENCHMARK-001",0,"Placebo",NA,NA,"DOR","Duration of Response","Y","Y","Male",1,"SD",0,NA
"SUBJ-0155","BENCHMARK-001",0,"Placebo",NA,NA,"DOR","Duration of Response","Y","Y","Male",0,"SD",0,NA
"SUBJ-0156","BENCHMARK-001",0,"Placebo",NA,NA,"DOR","Duration of Response","Y","Y","Male",1,"PD",0,NA
"SUBJ-0157","BENCHMARK-001",0,"Placebo",NA,NA,"DOR","Duration of Response","Y","Y","Male",0,"SD",0,NA
"SUBJ-0158","BENCHMARK-001",0,"Placebo",NA,1,"DOR","Duration of Response","Y","Y","Male",1,"PR",1,2.9
"SUBJ-0159","BENCHMARK-001",0,"Placebo",NA,NA,"DOR","Duration of Response","Y","Y","Male",1,"SD",0,NA
"SUBJ-0160","BENCHMARK-001",1,"Active",NA,NA,"DOR","Duration of Response","Y","Y","Male",0,"SD",0,NA
"SUBJ-0161","BENCHMARK-001",0,"Placebo",NA,NA,"DOR","Duration of Response","Y","Y","Male",0,"SD",0,NA
"SUBJ-0162","BENCHMARK-001",1,"Active",13.81,1,"DOR","Duration of Response","Y","Y","Female",0,"PR",1,0.14
"SUBJ-0163","BENCHMARK-001",1,"Active",NA,NA,"DOR","Duration of Response","Y","Y","Female",0,"PD",0,NA
"SUBJ-0164","BENCHMARK-001",0,"Placebo",13.83,0,"DOR","Duration of Response","Y","Y","Female",1,"CR",1,1.06
"SUBJ-0165","BENCHMARK-001",1,"Active",7.72,0,"DOR","Duration of Response","Y","Y","Female",1,"CR",1,0.02
"SUBJ-0166","BENCHMARK-001",1,"Active",NA,NA,"DOR","Duration of Response","Y","Y","Male",0,"PD",0,NA
"SUBJ-0167","BENCHMARK-001",0,"Placebo",NA,NA,"DOR","Duration of Response","Y","Y","Male",1,"PD",0,NA
"SUBJ-0168","BENCHMARK-001",0,"Placebo",NA,1,"DOR","Duration of Response","Y","Y","Male",0,"CR",1,1.07
"SUBJ-0169","BENCHMARK-001",1,"Active",NA,NA,"DOR","Duration of Response","Y","Y","Female",0,"PD",0,NA
"SUBJ-0170","BENCHMARK-001",0,"Placebo",NA,NA,"DOR","Duration of Response","Y","Y","Male",0,"SD",0,NA
"SUBJ-0171","BENCHMARK-001",1,"Active",NA,NA,"DOR","Duration of Response","Y","Y","Male",1,"PD",0,NA
"SUBJ-0172","BENCHMARK-001",0,"Placebo",NA,NA,"DOR","Duration of Response","Y","Y","Male",1,"SD",0,NA
"SUBJ-0173","BENCHMARK-001",1,"Active",1.08,0,"DOR","Duration of Response","Y","Y","Male",0,"PR",1,0.29
"SUBJ-0174","BENCHMARK-001",1,"Active",NA,NA,"DOR","Duration of Response","Y","Y","Male",0,"PD",0,NA
"SUBJ-0175","BENCHMARK-001",0,"Placebo",NA,NA,"DOR","Duration of Response","Y","Y","Male",0,"PD",0,NA
"SUBJ-0176","BENCHMARK-001",1,"Active",2.86,1,"DOR","Duration of Response","Y","Y","Male",0,"PR",1,1.19
"SUBJ-0177","BENCHMARK-001",0,"Placebo",NA,NA,"DOR","Duration of Response","Y","Y","Female",0,"PD",0,NA
"SUBJ-0178","BENCHMARK-001",1,"Active",NA,NA,"DOR","Duration of Response","Y","Y","Female",0,"PD",0,NA
"SUBJ-0179","BENCHMARK-001",1,"Active",NA,NA,"DOR","Duration of Response","Y","Y","Female",0,"PD",0,NA
"SUBJ-0180","BENCHMARK-001",1,"Active",NA,1,"DOR","Duration of Response","Y","Y","Female",0,"PR",1,5.82
"SUBJ-0181","BENCHMARK-001",1,"Active",NA,NA,"DOR","Duration of Response","Y","Y","Female",0,"PD",0,NA
"SUBJ-0182","BENCHMARK-001",1,"Active",NA,NA,"DOR","Duration of Response","Y","Y","Female",1,"SD",0,NA
"SUBJ-0183","BENCHMARK-001",1,"Active",NA,NA,"DOR","Duration of Response","Y","Y","Female",0,"SD",0,NA
"SUBJ-0184","BENCHMARK-001",0,"Placebo",NA,NA,"DOR","Duration of Response","Y","Y","Female",1,"SD",0,NA
"SUBJ-0185","BENCHMARK-001",1,"Active",NA,NA,"DOR","Duration of Response","Y","Y","Male",1,"PD",0,NA
"SUBJ-0186","BENCHMARK-001",1,"Active",NA,1,"DOR","Duration of Response","Y","Y","Female",0,"PR",1,2.33
"SUBJ-0187","BENCHMARK-001",1,"Active",NA,NA,"DOR","Duration of Response","Y","Y","Male",0,"SD",0,NA
"SUBJ-0188","BENCHMARK-001",0,"Placebo",2.98,0,"DOR","Duration of Response","Y","Y","Male",0,"PR",1,2.62
"SUBJ-0189","BENCHMARK-001",1,"Active",NA,NA,"DOR","Duration of Response","Y","Y","Male",0,"SD",0,NA
"SUBJ-0190","BENCHMARK-001",1,"Active",NA,NA,"DOR","Duration of Response","Y","Y","Female",1,"PD",0,NA
"SUBJ-0191","BENCHMARK-001",0,"Placebo",13.02,1,"DOR","Duration of Response","Y","Y","Male",0,"CR",1,1.86
"SUBJ-0192","BENCHMARK-001",1,"Active",NA,NA,"DOR","Duration of Response","Y","Y","Male",0,"SD",0,NA
"SUBJ-0193","BENCHMARK-001",1,"Active",1.93,1,"DOR","Duration of Response","Y","Y","Female",0,"CR",1,0.8
"SUBJ-0194","BENCHMARK-001",1,"Active",NA,NA,"DOR","Duration of Response","Y","Y","Male",1,"SD",0,NA
"SUBJ-0195","BENCHMARK-001",1,"Active",1.39,0,"DOR","Duration of Response","Y","Y","Male",0,"CR",1,0.57
"SUBJ-0196","BENCHMARK-001",1,"Active",NA,NA,"DOR","Duration of Response","Y","Y","Female",1,"PD",0,NA
"SUBJ-0197","BENCHMARK-001",0,"Placebo",0,0,"DOR","Duration of Response","Y","Y","Male",0,"CR",1,1.11
"SUBJ-0198","BENCHMARK-001",0,"Placebo",8.86,1,"DOR","Duration of Response","Y","Y","Male",1,"CR",1,0.34
"SUBJ-0199","BENCHMARK-001",1,"Active",NA,NA,"DOR","Duration of Response","Y","Y","Male",0,"PD",0,NA
"SUBJ-0200","BENCHMARK-001",1,"Active",NA,NA,"DOR","Duration of Response","Y","Y","Female",0,"PD",0,NA
